"success","timeout","failed_images","failed_audio","failed_video","trial_type","trial_index","time_elapsed","internal_node_id","subject_id","rt","stimulus","response","question_order","slider_start","image_path","practiceTrial","practiceTrialNum","correct"
"true","false","[]","[]","[]","preload","0","467","0.0-0.0","1fpxqwmnr1","","","","","","","","",""
"","","","","","html-button-response","1","3244","0.0-1.0","1fpxqwmnr1","2775","<div style='text-align:center; font-size:20px; line-height:25px; width: 1200px;'>
                Welcome to our experiment! <br>
                <br>At the bottom of this screen, you will see a button that says 'Begin Experiment.
                <br>Please only click that button when you are ready to complete the 25 minute experiment in one sitting. <br>
                <br> Once you click that button, it will not be possible to restart the experiment. <br><br>","0","","","","","",""
"true","","","","","fullscreen","2","8156","0.0-2.0","1fpxqwmnr1","3908","","","","","","","",""
"","","","","","survey-multi-select","3","39265","0.0-3.0","1fpxqwmnr1","31093","","{""Consent"":[""<strong>I consent</strong>""]}","[0]","","","","",""
"","","","","","html-button-response","4","41199","0.0-4.0","1fpxqwmnr1","1932","Welcome! <p> This experiment involves two parts: demographic information, followed by the experimental task.<p> It will take about 25 minutes to complete both parts.","0","","","","","",""
"","","","","","survey-text","5","48350","0.0-5.0","1fpxqwmnr1","7147","","{""Age"":""20"",""Gender"":""male"",""Race/ethnicity"":""white""}","","","","","",""
"","","","","","html-button-response","6","55614","0.0-6.0","1fpxqwmnr1","7263","
        <div style=""width:100%; display:flex; justify-content:center; align-items: flex-start; height: auto; flex-direction: column; margin-top: 80px; margin-bottom: 50px;"">

            <!-- Centered Header Text -->
            <div style=""width:1200px; text-align:left; font-size:24px; margin-top:-250px; margin-left: 80px;"">
                During this experiment, you will be presented with images of textures.
            </div>

            <!-- First Row: Uniform Textures -->
            <div style=""width:1200px; text-align:left; font-size:24px; margin-top: 50px; margin-bottom: 10px;"">
                <div style=""display: flex; justify-content: flex-start; align-items: center;"">
                    <span style=""width:45%; margin-left: 80px; margin-right: 20px;"">
                        Some of the textures will appear very 'uniform,' which means they appear similar across the whole image. 
                        The textures to the right are examples of very uniform texture.
                    </span>
                    <img src=""uniform_ex.png"" alt=""Uniform Texture"" style=""width:200px; height:auto; margin-left:120px; margin-right: 20px;"">
                    <img src=""uniform_ex2.png"" alt=""New Uniform Texture"" style=""width:200px; height:auto; margin-left:50px;"">
                </div>
            </div>

            <!-- Second Row: Non-Uniform Textures -->
            <div style=""width:1200px; text-align:left; font-size:24px; margin-top: 50px; margin-bottom: 10px;"">
                <div style=""display: flex; justify-content: flex-start; align-items: center;"">
                    <span style=""width:45%; margin-left: 80px; margin-right: 20px;"">
                        Some of the textures will appear very 'non-uniform,' which means they look different in different parts of the image. 
                        The textures to the right are examples of very non-uniform textures.
                    </span>
                    <img src=""not_uniform_ex.png"" alt=""Non-Uniform Texture"" style=""width:200px; height:auto; margin-left:120px; margin-right: 20px;"">
                    <img src=""not_uniform_ex2.png"" alt=""New Non-Uniform Texture"" style=""width:200px; height:auto; margin-left:50px;"">
                </div>
                </div>
        ","0","","","","","",""
"","","","","","html-slider-response","7","89310","0.0-7.0","1fpxqwmnr1","33693","
                <div style='text-align:left; height: auto; margin-left=-100px; margin-bottom: -20px; font-size:20px; line-height:25px; width: 1200px;'>
                    <br>During this experiment, you will see a series of textures, one at a time, like the ones below. 
                </div>
                    <br>
                    <br>
                    <img src=""anchoring_visual_textures2.png"" alt=""img"" style=""max-width:1200px; margin-left: -10px;"">
                </div>
                <div style=""clear: both;""></div>
                </div>
                    <div style='text-align:left; margin-left=-100px; font-size:20px; line-height:25px; width: 1200px; margin-top: -50px;'>
                    <br> Your task is to rate how uniform the texture appears on a scale from 'not at all uniform' to 'very much uniform,' like the one below.
                    <br><br> So you know what 'very much uniform' and 'not at all uniform' means to you in the context of these textures, please think about which textures below you consider 'very much uniform,' and which textures below you consider 'not at all uniform.'
                    <br><br>When you see a texture during the experiment that you consider 'very much uniform', please rate it near the 'very much uniform' endpoint of the
                    scale.<br><br> When you see a texture during the experiment that you consider 'not at all uniform', please rate it near the 'not at all uniform' endpoint
                    of the scale.<br><br>
                    Please use the full range of the scale. That is, if an texture is somewhat uniform, you would
                    click partway between the middle point and right side of the scale.                    You will be asked to rate each texture on its uniformity.<br><br>Press the
                    'Continue' button for instructions on how to use the slider.                     <br><br>
                ","1","","0","visual_textures_anchoring.png","true","",""
"","","","","","html-button-response","8","93619","0.0-8.0","1fpxqwmnr1","4308","<div style=""width:1200px; margin-top:-150px;""><p style=""text-align:center; font-size:24px;"">To move the slider, click and drag your cursor to the location of the scale where you would like to make your rating and then let go. <br><br> When you let go of the slider, your response will be recorded and the next trial will begin. <br><br><br>
                We are interested in your initial impressions of each image's uniformity, so please go with your first intuition. <br><br>
                Before you begin the experiment, there will be four training trials for you to practice using the scale. <br><br><br><br></div>
                <div style=""width:1200px;""><p style=""text-align:center; font-size:20px;"">When you are ready to start the training trials, please click ""Continue"".</p></div>","0","","","","","",""
"","","","","","html-slider-response","9","97424","0.0-9.0-0.0","1fpxqwmnr1","NaN","<div style=""width:500px;"">
                                <p style=""font-size:25px;"">Please move the slider all the way to the <br> right endpoint of the scale</p>

                                </div>
                            </div>","200","","0","","true","0","true"
"","","","","","html-button-response","10","99040","0.0-9.0-1.0","1fpxqwmnr1","1113","<p align='center'><b>Good job!</b> Click on 'Continue' to proceed.</p>","0","","","","","",""
"","","","","","html-slider-response","11","100374","0.0-10.0-0.0","1fpxqwmnr1","NaN","<div style=""width:500px;"">
                                <p style=""font-size:25px;"">Please move the slider all the way to the <br> left endpoint of the scale</p>

                                </div>
                            </div>","-200","","0","","true","1","true"
"","","","","","html-button-response","12","102096","0.0-10.0-1.0","1fpxqwmnr1","1220","<p align='center'><b>Good job!</b> Click on 'Continue' to proceed.</p>","0","","","","","",""
"","","","","","html-slider-response","13","106997","0.0-11.0-0.0","1fpxqwmnr1","NaN","<div style=""width:500px;"">
                                <p style=""font-size:25px;"">Please move the slider halfway between the center and right endpoint of the scale</p>

                                </div>
                            </div>","103","","0","","true","2","true"
"","","","","","html-button-response","14","108162","0.0-11.0-1.0","1fpxqwmnr1","663","<p align='center'><b>Good job!</b> Click on 'Continue' to proceed.</p>","0","","","","","",""
"","","","","","html-slider-response","15","112657","0.0-12.0-0.0","1fpxqwmnr1","NaN","<div style=""width:500px;"">
                                <p style=""font-size:25px;"">Please move the slider halfway between the center and left endpoint of the scale</p>

                                </div>
                            </div>","-110","","0","","true","3","true"
"","","","","","html-button-response","16","113753","0.0-12.0-1.0","1fpxqwmnr1","593","<p align='center'><b>Good job!</b> Click on 'Continue' to proceed.</p>","0","","","","","",""
"","","","","","html-button-response","17","115239","0.0-13.0","1fpxqwmnr1","1486","<div style=""width:800px; margin-top:-300px;""><p style=""text-align:center; font-size:22px; line-height:25px;""""> Great job! You've completed the practice trials.</div>
                     <div style=""width:800px; margin-top:-20px;""><p style=""text-align:center""><br><br> In the following trials, you will be asked to rate images on their uniformity one-by-one. <br> You will be given an oprtunities to take breaks when you have completed 25%, 50% and 75% of the trials. <br><br> Please click continue to begin the main task.<br><br><br> </div>","0","","","","","",""
"","","","","","html-slider-response","18","120472","0.0-14.0","1fpxqwmnr1","NaN","<div style=""width:500px;"">
                                <p style=""font-size:50px; font-weight:bold;""
                                ></p>
                                <div style=""width:240px; margin: auto;"">
                                    <img src=""images/D2.png"" style= ""width:200px""alt=""img"">
                                </div>
                            </div>","-70","","0","images/D2.png","","",""
"","","","","","html-slider-response","19","125753","0.0-15.0","1fpxqwmnr1","NaN","<div style=""width:500px;"">
                                <p style=""font-size:50px; font-weight:bold;""
                                ></p>
                                <div style=""width:240px; margin: auto;"">
                                    <img src=""images/D64.png"" style= ""width:200px""alt=""img"">
                                </div>
                            </div>","180","","0","images/D64.png","","",""
"","","","","","html-slider-response","20","130803","0.0-16.0","1fpxqwmnr1","NaN","<div style=""width:500px;"">
                                <p style=""font-size:50px; font-weight:bold;""
                                ></p>
                                <div style=""width:240px; margin: auto;"">
                                    <img src=""images/D90.png"" style= ""width:200px""alt=""img"">
                                </div>
                            </div>","-163","","0","images/D90.png","","",""
"","","","","","html-slider-response","21","137168","0.0-17.0","1fpxqwmnr1","NaN","<div style=""width:500px;"">
                                <p style=""font-size:50px; font-weight:bold;""
                                ></p>
                                <div style=""width:240px; margin: auto;"">
                                    <img src=""images/D71.png"" style= ""width:200px""alt=""img"">
                                </div>
                            </div>","58","","0","images/D71.png","","",""
"","","","","","html-slider-response","22","139524","0.0-18.0","1fpxqwmnr1","NaN","<div style=""width:500px;"">
                                <p style=""font-size:50px; font-weight:bold;""
                                ></p>
                                <div style=""width:240px; margin: auto;"">
                                    <img src=""images/D84.png"" style= ""width:200px""alt=""img"">
                                </div>
                            </div>","200","","0","images/D84.png","","",""
"","","","","","html-slider-response","23","144731","0.0-19.0","1fpxqwmnr1","NaN","<div style=""width:500px;"">
                                <p style=""font-size:50px; font-weight:bold;""
                                ></p>
                                <div style=""width:240px; margin: auto;"">
                                    <img src=""images/D107.png"" style= ""width:200px""alt=""img"">
                                </div>
                            </div>","-28","","0","images/D107.png","","",""
"","","","","","html-slider-response","24","149303","0.0-20.0","1fpxqwmnr1","NaN","<div style=""width:500px;"">
                                <p style=""font-size:50px; font-weight:bold;""
                                ></p>
                                <div style=""width:240px; margin: auto;"">
                                    <img src=""images/D100.png"" style= ""width:200px""alt=""img"">
                                </div>
                            </div>","-16","","0","images/D100.png","","",""
"","","","","","html-slider-response","25","151249","0.0-21.0","1fpxqwmnr1","NaN","<div style=""width:500px;"">
                                <p style=""font-size:50px; font-weight:bold;""
                                ></p>
                                <div style=""width:240px; margin: auto;"">
                                    <img src=""images/D20.png"" style= ""width:200px""alt=""img"">
                                </div>
                            </div>","200","","0","images/D20.png","","",""
"","","","","","html-slider-response","26","157018","0.0-22.0","1fpxqwmnr1","NaN","<div style=""width:500px;"">
                                <p style=""font-size:50px; font-weight:bold;""
                                ></p>
                                <div style=""width:240px; margin: auto;"">
                                    <img src=""images/D79.png"" style= ""width:200px""alt=""img"">
                                </div>
                            </div>","138","","0","images/D79.png","","",""
"","","","","","html-slider-response","27","158760","0.0-23.0","1fpxqwmnr1","NaN","<div style=""width:500px;"">
                                <p style=""font-size:50px; font-weight:bold;""
                                ></p>
                                <div style=""width:240px; margin: auto;"">
                                    <img src=""images/D102.png"" style= ""width:200px""alt=""img"">
                                </div>
                            </div>","200","","0","images/D102.png","","",""
"","","","","","html-slider-response","28","163678","0.0-24.0","1fpxqwmnr1","NaN","<div style=""width:500px;"">
                                <p style=""font-size:50px; font-weight:bold;""
                                ></p>
                                <div style=""width:240px; margin: auto;"">
                                    <img src=""images/D73.png"" style= ""width:200px""alt=""img"">
                                </div>
                            </div>","-39","","0","images/D73.png","","",""
"","","","","","html-slider-response","29","165591","0.0-25.0","1fpxqwmnr1","NaN","<div style=""width:500px;"">
                                <p style=""font-size:50px; font-weight:bold;""
                                ></p>
                                <div style=""width:240px; margin: auto;"">
                                    <img src=""images/D86.png"" style= ""width:200px""alt=""img"">
                                </div>
                            </div>","-62","","0","images/D86.png","","",""
"","","","","","html-slider-response","30","168269","0.0-26.0","1fpxqwmnr1","NaN","<div style=""width:500px;"">
                                <p style=""font-size:50px; font-weight:bold;""
                                ></p>
                                <div style=""width:240px; margin: auto;"">
                                    <img src=""images/D49.png"" style= ""width:200px""alt=""img"">
                                </div>
                            </div>","152","","0","images/D49.png","","",""
"","","","","","html-slider-response","31","174220","0.0-27.0","1fpxqwmnr1","NaN","<div style=""width:500px;"">
                                <p style=""font-size:50px; font-weight:bold;""
                                ></p>
                                <div style=""width:240px; margin: auto;"">
                                    <img src=""images/D99.png"" style= ""width:200px""alt=""img"">
                                </div>
                            </div>","34","","0","images/D99.png","","",""
"","","","","","html-slider-response","32","178845","0.0-28.0","1fpxqwmnr1","NaN","<div style=""width:500px;"">
                                <p style=""font-size:50px; font-weight:bold;""
                                ></p>
                                <div style=""width:240px; margin: auto;"">
                                    <img src=""images/D48.png"" style= ""width:200px""alt=""img"">
                                </div>
                            </div>","62","","0","images/D48.png","","",""
"","","","","","html-slider-response","33","183873","0.0-29.0","1fpxqwmnr1","NaN","<div style=""width:500px;"">
                                <p style=""font-size:50px; font-weight:bold;""
                                ></p>
                                <div style=""width:240px; margin: auto;"">
                                    <img src=""images/D37.png"" style= ""width:200px""alt=""img"">
                                </div>
                            </div>","6","","0","images/D37.png","","",""
"","","","","","html-slider-response","34","186828","0.0-30.0","1fpxqwmnr1","NaN","<div style=""width:500px;"">
                                <p style=""font-size:50px; font-weight:bold;""
                                ></p>
                                <div style=""width:240px; margin: auto;"">
                                    <img src=""images/D26.png"" style= ""width:200px""alt=""img"">
                                </div>
                            </div>","136","","0","images/D26.png","","",""
"","","","","","html-slider-response","35","191368","0.0-31.0","1fpxqwmnr1","NaN","<div style=""width:500px;"">
                                <p style=""font-size:50px; font-weight:bold;""
                                ></p>
                                <div style=""width:240px; margin: auto;"">
                                    <img src=""images/D80.png"" style= ""width:200px""alt=""img"">
                                </div>
                            </div>","74","","0","images/D80.png","","",""
"","","","","","html-slider-response","36","194889","0.0-32.0","1fpxqwmnr1","NaN","<div style=""width:500px;"">
                                <p style=""font-size:50px; font-weight:bold;""
                                ></p>
                                <div style=""width:240px; margin: auto;"">
                                    <img src=""images/D88.png"" style= ""width:200px""alt=""img"">
                                </div>
                            </div>","27","","0","images/D88.png","","",""
"","","","","","html-slider-response","37","197723","0.0-33.0","1fpxqwmnr1","NaN","<div style=""width:500px;"">
                                <p style=""font-size:50px; font-weight:bold;""
                                ></p>
                                <div style=""width:240px; margin: auto;"">
                                    <img src=""images/D111.png"" style= ""width:200px""alt=""img"">
                                </div>
                            </div>","41","","0","images/D111.png","","",""
"","","","","","html-slider-response","38","200159","0.0-34.0","1fpxqwmnr1","NaN","<div style=""width:500px;"">
                                <p style=""font-size:50px; font-weight:bold;""
                                ></p>
                                <div style=""width:240px; margin: auto;"">
                                    <img src=""images/D93.png"" style= ""width:200px""alt=""img"">
                                </div>
                            </div>","-42","","0","images/D93.png","","",""
"","","","","","html-slider-response","39","204195","0.0-35.0","1fpxqwmnr1","NaN","<div style=""width:500px;"">
                                <p style=""font-size:50px; font-weight:bold;""
                                ></p>
                                <div style=""width:240px; margin: auto;"">
                                    <img src=""images/D67.png"" style= ""width:200px""alt=""img"">
                                </div>
                            </div>","-103","","0","images/D67.png","","",""
"","","","","","html-slider-response","40","206898","0.0-36.0","1fpxqwmnr1","NaN","<div style=""width:500px;"">
                                <p style=""font-size:50px; font-weight:bold;""
                                ></p>
                                <div style=""width:240px; margin: auto;"">
                                    <img src=""images/D18.png"" style= ""width:200px""alt=""img"">
                                </div>
                            </div>","102","","0","images/D18.png","","",""
"","","","","","html-slider-response","41","209012","0.0-37.0","1fpxqwmnr1","NaN","<div style=""width:500px;"">
                                <p style=""font-size:50px; font-weight:bold;""
                                ></p>
                                <div style=""width:240px; margin: auto;"">
                                    <img src=""images/D62.png"" style= ""width:200px""alt=""img"">
                                </div>
                            </div>","-42","","0","images/D62.png","","",""
"","","","","","html-slider-response","42","210581","0.0-38.0","1fpxqwmnr1","NaN","<div style=""width:500px;"">
                                <p style=""font-size:50px; font-weight:bold;""
                                ></p>
                                <div style=""width:240px; margin: auto;"">
                                    <img src=""images/D58.png"" style= ""width:200px""alt=""img"">
                                </div>
                            </div>","-79","","0","images/D58.png","","",""
"","","","","","html-slider-response","43","213129","0.0-39.0","1fpxqwmnr1","NaN","<div style=""width:500px;"">
                                <p style=""font-size:50px; font-weight:bold;""
                                ></p>
                                <div style=""width:240px; margin: auto;"">
                                    <img src=""images/D12.png"" style= ""width:200px""alt=""img"">
                                </div>
                            </div>","-11","","0","images/D12.png","","",""
"","","","","","html-slider-response","44","215576","0.0-40.0","1fpxqwmnr1","NaN","<div style=""width:500px;"">
                                <p style=""font-size:50px; font-weight:bold;""
                                ></p>
                                <div style=""width:240px; margin: auto;"">
                                    <img src=""images/D40.png"" style= ""width:200px""alt=""img"">
                                </div>
                            </div>","47","","0","images/D40.png","","",""
"","","","","","html-slider-response","45","218587","0.0-41.0","1fpxqwmnr1","NaN","<div style=""width:500px;"">
                                <p style=""font-size:50px; font-weight:bold;""
                                ></p>
                                <div style=""width:240px; margin: auto;"">
                                    <img src=""images/D27.png"" style= ""width:200px""alt=""img"">
                                </div>
                            </div>","10","","0","images/D27.png","","",""
"","","","","","html-slider-response","46","221350","0.0-42.0","1fpxqwmnr1","NaN","<div style=""width:500px;"">
                                <p style=""font-size:50px; font-weight:bold;""
                                ></p>
                                <div style=""width:240px; margin: auto;"">
                                    <img src=""images/D61.png"" style= ""width:200px""alt=""img"">
                                </div>
                            </div>","-178","","0","images/D61.png","","",""
"","","","","","html-slider-response","47","225281","0.0-43.0","1fpxqwmnr1","NaN","<div style=""width:500px;"">
                                <p style=""font-size:50px; font-weight:bold;""
                                ></p>
                                <div style=""width:240px; margin: auto;"">
                                    <img src=""images/D75.png"" style= ""width:200px""alt=""img"">
                                </div>
                            </div>","2","","0","images/D75.png","","",""
"","","","","","html-slider-response","48","227502","0.0-44.0","1fpxqwmnr1","NaN","<div style=""width:500px;"">
                                <p style=""font-size:50px; font-weight:bold;""
                                ></p>
                                <div style=""width:240px; margin: auto;"">
                                    <img src=""images/D74.png"" style= ""width:200px""alt=""img"">
                                </div>
                            </div>","23","","0","images/D74.png","","",""
"","","","","","html-slider-response","49","229056","0.0-45.0","1fpxqwmnr1","NaN","<div style=""width:500px;"">
                                <p style=""font-size:50px; font-weight:bold;""
                                ></p>
                                <div style=""width:240px; margin: auto;"">
                                    <img src=""images/D101.png"" style= ""width:200px""alt=""img"">
                                </div>
                            </div>","200","","0","images/D101.png","","",""
"","","","","","html-slider-response","50","232386","0.0-46.0","1fpxqwmnr1","NaN","<div style=""width:500px;"">
                                <p style=""font-size:50px; font-weight:bold;""
                                ></p>
                                <div style=""width:240px; margin: auto;"">
                                    <img src=""images/D106.png"" style= ""width:200px""alt=""img"">
                                </div>
                            </div>","98","","0","images/D106.png","","",""
"","","","","","html-slider-response","51","234549","0.0-47.0","1fpxqwmnr1","NaN","<div style=""width:500px;"">
                                <p style=""font-size:50px; font-weight:bold;""
                                ></p>
                                <div style=""width:240px; margin: auto;"">
                                    <img src=""images/D77.png"" style= ""width:200px""alt=""img"">
                                </div>
                            </div>","106","","0","images/D77.png","","",""
"","","","","","html-slider-response","52","236565","0.0-48.0","1fpxqwmnr1","NaN","<div style=""width:500px;"">
                                <p style=""font-size:50px; font-weight:bold;""
                                ></p>
                                <div style=""width:240px; margin: auto;"">
                                    <img src=""images/D16.png"" style= ""width:200px""alt=""img"">
                                </div>
                            </div>","200","","0","images/D16.png","","",""
"","","","","","html-slider-response","53","238437","0.0-49.0","1fpxqwmnr1","NaN","<div style=""width:500px;"">
                                <p style=""font-size:50px; font-weight:bold;""
                                ></p>
                                <div style=""width:240px; margin: auto;"">
                                    <img src=""images/D55.png"" style= ""width:200px""alt=""img"">
                                </div>
                            </div>","200","","0","images/D55.png","","",""
"","","","","","html-slider-response","54","241337","0.0-50.0","1fpxqwmnr1","NaN","<div style=""width:500px;"">
                                <p style=""font-size:50px; font-weight:bold;""
                                ></p>
                                <div style=""width:240px; margin: auto;"">
                                    <img src=""images/D23.png"" style= ""width:200px""alt=""img"">
                                </div>
                            </div>","-8","","0","images/D23.png","","",""
"","","","","","html-slider-response","55","244282","0.0-51.0","1fpxqwmnr1","NaN","<div style=""width:500px;"">
                                <p style=""font-size:50px; font-weight:bold;""
                                ></p>
                                <div style=""width:240px; margin: auto;"">
                                    <img src=""images/D109.png"" style= ""width:200px""alt=""img"">
                                </div>
                            </div>","10","","0","images/D109.png","","",""
"","","","","","html-slider-response","56","246175","0.0-52.0","1fpxqwmnr1","NaN","<div style=""width:500px;"">
                                <p style=""font-size:50px; font-weight:bold;""
                                ></p>
                                <div style=""width:240px; margin: auto;"">
                                    <img src=""images/D46.png"" style= ""width:200px""alt=""img"">
                                </div>
                            </div>","57","","0","images/D46.png","","",""
"","","","","","html-slider-response","57","248328","0.0-53.0","1fpxqwmnr1","NaN","<div style=""width:500px;"">
                                <p style=""font-size:50px; font-weight:bold;""
                                ></p>
                                <div style=""width:240px; margin: auto;"">
                                    <img src=""images/D95.png"" style= ""width:200px""alt=""img"">
                                </div>
                            </div>","62","","0","images/D95.png","","",""
"","","","","","html-slider-response","58","250783","0.0-54.0","1fpxqwmnr1","NaN","<div style=""width:500px;"">
                                <p style=""font-size:50px; font-weight:bold;""
                                ></p>
                                <div style=""width:240px; margin: auto;"">
                                    <img src=""images/D3.png"" style= ""width:200px""alt=""img"">
                                </div>
                            </div>","85","","0","images/D3.png","","",""
"","","","","","html-slider-response","59","253556","0.0-55.0","1fpxqwmnr1","NaN","<div style=""width:500px;"">
                                <p style=""font-size:50px; font-weight:bold;""
                                ></p>
                                <div style=""width:240px; margin: auto;"">
                                    <img src=""images/D60.png"" style= ""width:200px""alt=""img"">
                                </div>
                            </div>","-86","","0","images/D60.png","","",""
"","","","","","html-slider-response","60","256398","0.0-56.0","1fpxqwmnr1","NaN","<div style=""width:500px;"">
                                <p style=""font-size:50px; font-weight:bold;""
                                ></p>
                                <div style=""width:240px; margin: auto;"">
                                    <img src=""images/D110.png"" style= ""width:200px""alt=""img"">
                                </div>
                            </div>","-63","","0","images/D110.png","","",""
"","","","","","html-slider-response","61","258775","0.0-57.0","1fpxqwmnr1","NaN","<div style=""width:500px;"">
                                <p style=""font-size:50px; font-weight:bold;""
                                ></p>
                                <div style=""width:240px; margin: auto;"">
                                    <img src=""images/D91.png"" style= ""width:200px""alt=""img"">
                                </div>
                            </div>","-134","","0","images/D91.png","","",""
"","","","","","html-slider-response","62","261747","0.0-58.0","1fpxqwmnr1","NaN","<div style=""width:500px;"">
                                <p style=""font-size:50px; font-weight:bold;""
                                ></p>
                                <div style=""width:240px; margin: auto;"">
                                    <img src=""images/D51.png"" style= ""width:200px""alt=""img"">
                                </div>
                            </div>","-26","","0","images/D51.png","","",""
"","","","","","html-slider-response","63","266853","0.0-59.0","1fpxqwmnr1","NaN","<div style=""width:500px;"">
                                <p style=""font-size:50px; font-weight:bold;""
                                ></p>
                                <div style=""width:240px; margin: auto;"">
                                    <img src=""images/D52.png"" style= ""width:200px""alt=""img"">
                                </div>
                            </div>","127","","0","images/D52.png","","",""
"","","","","","html-slider-response","64","270211","0.0-60.0","1fpxqwmnr1","NaN","<div style=""width:500px;"">
                                <p style=""font-size:50px; font-weight:bold;""
                                ></p>
                                <div style=""width:240px; margin: auto;"">
                                    <img src=""images/D81.png"" style= ""width:200px""alt=""img"">
                                </div>
                            </div>","22","","0","images/D81.png","","",""
"","","","","","html-slider-response","65","272338","0.0-61.0","1fpxqwmnr1","NaN","<div style=""width:500px;"">
                                <p style=""font-size:50px; font-weight:bold;""
                                ></p>
                                <div style=""width:240px; margin: auto;"">
                                    <img src=""images/D78.png"" style= ""width:200px""alt=""img"">
                                </div>
                            </div>","107","","0","images/D78.png","","",""
"","","","","","html-slider-response","66","274521","0.0-62.0","1fpxqwmnr1","NaN","<div style=""width:500px;"">
                                <p style=""font-size:50px; font-weight:bold;""
                                ></p>
                                <div style=""width:240px; margin: auto;"">
                                    <img src=""images/D25.png"" style= ""width:200px""alt=""img"">
                                </div>
                            </div>","109","","0","images/D25.png","","",""
"","","","","","html-slider-response","67","277637","0.0-63.0","1fpxqwmnr1","NaN","<div style=""width:500px;"">
                                <p style=""font-size:50px; font-weight:bold;""
                                ></p>
                                <div style=""width:240px; margin: auto;"">
                                    <img src=""images/D104.png"" style= ""width:200px""alt=""img"">
                                </div>
                            </div>","43","","0","images/D104.png","","",""
"","","","","","html-slider-response","68","279505","0.0-64.0","1fpxqwmnr1","NaN","<div style=""width:500px;"">
                                <p style=""font-size:50px; font-weight:bold;""
                                ></p>
                                <div style=""width:240px; margin: auto;"">
                                    <img src=""images/D21.png"" style= ""width:200px""alt=""img"">
                                </div>
                            </div>","141","","0","images/D21.png","","",""
"","","","","","html-slider-response","69","282653","0.0-65.0","1fpxqwmnr1","NaN","<div style=""width:500px;"">
                                <p style=""font-size:50px; font-weight:bold;""
                                ></p>
                                <div style=""width:240px; margin: auto;"">
                                    <img src=""images/D36.png"" style= ""width:200px""alt=""img"">
                                </div>
                            </div>","41","","0","images/D36.png","","",""
"","","","","","html-slider-response","70","285113","0.0-66.0","1fpxqwmnr1","NaN","<div style=""width:500px;"">
                                <p style=""font-size:50px; font-weight:bold;""
                                ></p>
                                <div style=""width:240px; margin: auto;"">
                                    <img src=""images/D19.png"" style= ""width:200px""alt=""img"">
                                </div>
                            </div>","79","","0","images/D19.png","","",""
"","","","","","html-slider-response","71","287783","0.0-67.0","1fpxqwmnr1","NaN","<div style=""width:500px;"">
                                <p style=""font-size:50px; font-weight:bold;""
                                ></p>
                                <div style=""width:240px; margin: auto;"">
                                    <img src=""images/D92.png"" style= ""width:200px""alt=""img"">
                                </div>
                            </div>","-14","","0","images/D92.png","","",""
"","","","","","html-slider-response","72","290993","0.0-68.0","1fpxqwmnr1","NaN","<div style=""width:500px;"">
                                <p style=""font-size:50px; font-weight:bold;""
                                ></p>
                                <div style=""width:240px; margin: auto;"">
                                    <img src=""images/D38.png"" style= ""width:200px""alt=""img"">
                                </div>
                            </div>","7","","0","images/D38.png","","",""
"","","","","","html-slider-response","73","293629","0.0-69.0","1fpxqwmnr1","NaN","<div style=""width:500px;"">
                                <p style=""font-size:50px; font-weight:bold;""
                                ></p>
                                <div style=""width:240px; margin: auto;"">
                                    <img src=""images/D96.png"" style= ""width:200px""alt=""img"">
                                </div>
                            </div>","58","","0","images/D96.png","","",""
"","","","","","html-button-response","74","295296","0.0-70.0","1fpxqwmnr1","1164","You have completed 25% of the trials. Please click 'Continue' when you are ready proceed.","0","","","","","",""
"","","","","","html-slider-response","75","298707","0.0-71.0","1fpxqwmnr1","NaN","<div style=""width:500px;"">
                                <p style=""font-size:50px; font-weight:bold;""
                                ></p>
                                <div style=""width:240px; margin: auto;"">
                                    <img src=""images/D8.png"" style= ""width:200px""alt=""img"">
                                </div>
                            </div>","200","","0","images/D8.png","","",""
"","","","","","html-slider-response","76","301410","0.0-72.0","1fpxqwmnr1","NaN","<div style=""width:500px;"">
                                <p style=""font-size:50px; font-weight:bold;""
                                ></p>
                                <div style=""width:240px; margin: auto;"">
                                    <img src=""images/D87.png"" style= ""width:200px""alt=""img"">
                                </div>
                            </div>","38","","0","images/D87.png","","",""
"","","","","","html-slider-response","77","303299","0.0-73.0","1fpxqwmnr1","NaN","<div style=""width:500px;"">
                                <p style=""font-size:50px; font-weight:bold;""
                                ></p>
                                <div style=""width:240px; margin: auto;"">
                                    <img src=""images/D9.png"" style= ""width:200px""alt=""img"">
                                </div>
                            </div>","46","","0","images/D9.png","","",""
"","","","","","html-slider-response","78","304931","0.0-74.0","1fpxqwmnr1","NaN","<div style=""width:500px;"">
                                <p style=""font-size:50px; font-weight:bold;""
                                ></p>
                                <div style=""width:240px; margin: auto;"">
                                    <img src=""images/D30.png"" style= ""width:200px""alt=""img"">
                                </div>
                            </div>","-45","","0","images/D30.png","","",""
"","","","","","html-slider-response","79","306746","0.0-75.0","1fpxqwmnr1","NaN","<div style=""width:500px;"">
                                <p style=""font-size:50px; font-weight:bold;""
                                ></p>
                                <div style=""width:240px; margin: auto;"">
                                    <img src=""images/D10.png"" style= ""width:200px""alt=""img"">
                                </div>
                            </div>","-60","","0","images/D10.png","","",""
"","","","","","html-slider-response","80","308870","0.0-76.0","1fpxqwmnr1","NaN","<div style=""width:500px;"">
                                <p style=""font-size:50px; font-weight:bold;""
                                ></p>
                                <div style=""width:240px; margin: auto;"">
                                    <img src=""images/D41.png"" style= ""width:200px""alt=""img"">
                                </div>
                            </div>","83","","0","images/D41.png","","",""
"","","","","","html-slider-response","81","311486","0.0-77.0","1fpxqwmnr1","NaN","<div style=""width:500px;"">
                                <p style=""font-size:50px; font-weight:bold;""
                                ></p>
                                <div style=""width:240px; margin: auto;"">
                                    <img src=""images/D39.png"" style= ""width:200px""alt=""img"">
                                </div>
                            </div>","27","","0","images/D39.png","","",""
"","","","","","html-slider-response","82","313186","0.0-78.0","1fpxqwmnr1","NaN","<div style=""width:500px;"">
                                <p style=""font-size:50px; font-weight:bold;""
                                ></p>
                                <div style=""width:240px; margin: auto;"">
                                    <img src=""images/D105.png"" style= ""width:200px""alt=""img"">
                                </div>
                            </div>","71","","0","images/D105.png","","",""
"","","","","","html-slider-response","83","314904","0.0-79.0","1fpxqwmnr1","NaN","<div style=""width:500px;"">
                                <p style=""font-size:50px; font-weight:bold;""
                                ></p>
                                <div style=""width:240px; margin: auto;"">
                                    <img src=""images/D53.png"" style= ""width:200px""alt=""img"">
                                </div>
                            </div>","149","","0","images/D53.png","","",""
"","","","","","html-slider-response","84","316921","0.0-80.0","1fpxqwmnr1","NaN","<div style=""width:500px;"">
                                <p style=""font-size:50px; font-weight:bold;""
                                ></p>
                                <div style=""width:240px; margin: auto;"">
                                    <img src=""images/D7.png"" style= ""width:200px""alt=""img"">
                                </div>
                            </div>","-124","","0","images/D7.png","","",""
"","","","","","html-slider-response","85","319182","0.0-81.0","1fpxqwmnr1","NaN","<div style=""width:500px;"">
                                <p style=""font-size:50px; font-weight:bold;""
                                ></p>
                                <div style=""width:240px; margin: auto;"">
                                    <img src=""images/D76.png"" style= ""width:200px""alt=""img"">
                                </div>
                            </div>","16","","0","images/D76.png","","",""
"","","","","","html-slider-response","86","321255","0.0-82.0","1fpxqwmnr1","NaN","<div style=""width:500px;"">
                                <p style=""font-size:50px; font-weight:bold;""
                                ></p>
                                <div style=""width:240px; margin: auto;"">
                                    <img src=""images/D103.png"" style= ""width:200px""alt=""img"">
                                </div>
                            </div>","60","","0","images/D103.png","","",""
"","","","","","html-slider-response","87","323774","0.0-83.0","1fpxqwmnr1","NaN","<div style=""width:500px;"">
                                <p style=""font-size:50px; font-weight:bold;""
                                ></p>
                                <div style=""width:240px; margin: auto;"">
                                    <img src=""images/D24.png"" style= ""width:200px""alt=""img"">
                                </div>
                            </div>","89","","0","images/D24.png","","",""
"","","","","","html-slider-response","88","325544","0.0-84.0","1fpxqwmnr1","NaN","<div style=""width:500px;"">
                                <p style=""font-size:50px; font-weight:bold;""
                                ></p>
                                <div style=""width:240px; margin: auto;"">
                                    <img src=""images/D50.png"" style= ""width:200px""alt=""img"">
                                </div>
                            </div>","45","","0","images/D50.png","","",""
"","","","","","html-slider-response","89","328392","0.0-85.0","1fpxqwmnr1","NaN","<div style=""width:500px;"">
                                <p style=""font-size:50px; font-weight:bold;""
                                ></p>
                                <div style=""width:240px; margin: auto;"">
                                    <img src=""images/D85.png"" style= ""width:200px""alt=""img"">
                                </div>
                            </div>","94","","0","images/D85.png","","",""
"","","","","","html-slider-response","90","330209","0.0-86.0","1fpxqwmnr1","NaN","<div style=""width:500px;"">
                                <p style=""font-size:50px; font-weight:bold;""
                                ></p>
                                <div style=""width:240px; margin: auto;"">
                                    <img src=""images/D98.png"" style= ""width:200px""alt=""img"">
                                </div>
                            </div>","-35","","0","images/D98.png","","",""
"","","","","","html-slider-response","91","332805","0.0-87.0","1fpxqwmnr1","NaN","<div style=""width:500px;"">
                                <p style=""font-size:50px; font-weight:bold;""
                                ></p>
                                <div style=""width:240px; margin: auto;"">
                                    <img src=""images/D35.png"" style= ""width:200px""alt=""img"">
                                </div>
                            </div>","63","","0","images/D35.png","","",""
"","","","","","html-slider-response","92","335180","0.0-88.0","1fpxqwmnr1","NaN","<div style=""width:500px;"">
                                <p style=""font-size:50px; font-weight:bold;""
                                ></p>
                                <div style=""width:240px; margin: auto;"">
                                    <img src=""images/D89.png"" style= ""width:200px""alt=""img"">
                                </div>
                            </div>","-51","","0","images/D89.png","","",""
"","","","","","html-slider-response","93","337028","0.0-89.0","1fpxqwmnr1","NaN","<div style=""width:500px;"">
                                <p style=""font-size:50px; font-weight:bold;""
                                ></p>
                                <div style=""width:240px; margin: auto;"">
                                    <img src=""images/D5.png"" style= ""width:200px""alt=""img"">
                                </div>
                            </div>","-62","","0","images/D5.png","","",""
"","","","","","html-slider-response","94","339630","0.0-90.0","1fpxqwmnr1","NaN","<div style=""width:500px;"">
                                <p style=""font-size:50px; font-weight:bold;""
                                ></p>
                                <div style=""width:240px; margin: auto;"">
                                    <img src=""images/D70.png"" style= ""width:200px""alt=""img"">
                                </div>
                            </div>","52","","0","images/D70.png","","",""
"","","","","","html-slider-response","95","346004","0.0-91.0","1fpxqwmnr1","NaN","<div style=""width:500px;"">
                                <p style=""font-size:50px; font-weight:bold;""
                                ></p>
                                <div style=""width:240px; margin: auto;"">
                                    <img src=""images/D33.png"" style= ""width:200px""alt=""img"">
                                </div>
                            </div>","-4","","0","images/D33.png","","",""
"","","","","","html-slider-response","96","348103","0.0-92.0","1fpxqwmnr1","NaN","<div style=""width:500px;"">
                                <p style=""font-size:50px; font-weight:bold;""
                                ></p>
                                <div style=""width:240px; margin: auto;"">
                                    <img src=""images/D14.png"" style= ""width:200px""alt=""img"">
                                </div>
                            </div>","200","","0","images/D14.png","","",""
"","","","","","html-slider-response","97","349943","0.0-93.0","1fpxqwmnr1","NaN","<div style=""width:500px;"">
                                <p style=""font-size:50px; font-weight:bold;""
                                ></p>
                                <div style=""width:240px; margin: auto;"">
                                    <img src=""images/D56.png"" style= ""width:200px""alt=""img"">
                                </div>
                            </div>","200","","0","images/D56.png","","",""
"","","","","","html-slider-response","98","352121","0.0-94.0","1fpxqwmnr1","NaN","<div style=""width:500px;"">
                                <p style=""font-size:50px; font-weight:bold;""
                                ></p>
                                <div style=""width:240px; margin: auto;"">
                                    <img src=""images/D13.png"" style= ""width:200px""alt=""img"">
                                </div>
                            </div>","-200","","0","images/D13.png","","",""
"","","","","","html-slider-response","99","356385","0.0-95.0","1fpxqwmnr1","NaN","<div style=""width:500px;"">
                                <p style=""font-size:50px; font-weight:bold;""
                                ></p>
                                <div style=""width:240px; margin: auto;"">
                                    <img src=""images/D43.png"" style= ""width:200px""alt=""img"">
                                </div>
                            </div>","-128","","0","images/D43.png","","",""
"","","","","","html-slider-response","100","358489","0.0-96.0","1fpxqwmnr1","NaN","<div style=""width:500px;"">
                                <p style=""font-size:50px; font-weight:bold;""
                                ></p>
                                <div style=""width:240px; margin: auto;"">
                                    <img src=""images/D31.png"" style= ""width:200px""alt=""img"">
                                </div>
                            </div>","-38","","0","images/D31.png","","",""
"","","","","","html-slider-response","101","363211","0.0-97.0","1fpxqwmnr1","NaN","<div style=""width:500px;"">
                                <p style=""font-size:50px; font-weight:bold;""
                                ></p>
                                <div style=""width:240px; margin: auto;"">
                                    <img src=""images/D112.png"" style= ""width:200px""alt=""img"">
                                </div>
                            </div>","-20","","0","images/D112.png","","",""
"","","","","","html-slider-response","102","365288","0.0-98.0","1fpxqwmnr1","NaN","<div style=""width:500px;"">
                                <p style=""font-size:50px; font-weight:bold;""
                                ></p>
                                <div style=""width:240px; margin: auto;"">
                                    <img src=""images/D15.png"" style= ""width:200px""alt=""img"">
                                </div>
                            </div>","-77","","0","images/D15.png","","",""
"","","","","","html-slider-response","103","367235","0.0-99.0","1fpxqwmnr1","NaN","<div style=""width:500px;"">
                                <p style=""font-size:50px; font-weight:bold;""
                                ></p>
                                <div style=""width:240px; margin: auto;"">
                                    <img src=""images/D66.png"" style= ""width:200px""alt=""img"">
                                </div>
                            </div>","78","","0","images/D66.png","","",""
"","","","","","html-slider-response","104","368647","0.0-100.0","1fpxqwmnr1","NaN","<div style=""width:500px;"">
                                <p style=""font-size:50px; font-weight:bold;""
                                ></p>
                                <div style=""width:240px; margin: auto;"">
                                    <img src=""images/D1.png"" style= ""width:200px""alt=""img"">
                                </div>
                            </div>","200","","0","images/D1.png","","",""
"","","","","","html-slider-response","105","370617","0.0-101.0","1fpxqwmnr1","NaN","<div style=""width:500px;"">
                                <p style=""font-size:50px; font-weight:bold;""
                                ></p>
                                <div style=""width:240px; margin: auto;"">
                                    <img src=""images/D68.png"" style= ""width:200px""alt=""img"">
                                </div>
                            </div>","74","","0","images/D68.png","","",""
"","","","","","html-slider-response","106","372953","0.0-102.0","1fpxqwmnr1","NaN","<div style=""width:500px;"">
                                <p style=""font-size:50px; font-weight:bold;""
                                ></p>
                                <div style=""width:240px; margin: auto;"">
                                    <img src=""images/D59.png"" style= ""width:200px""alt=""img"">
                                </div>
                            </div>","-200","","0","images/D59.png","","",""
"","","","","","html-slider-response","107","374890","0.0-103.0","1fpxqwmnr1","NaN","<div style=""width:500px;"">
                                <p style=""font-size:50px; font-weight:bold;""
                                ></p>
                                <div style=""width:240px; margin: auto;"">
                                    <img src=""images/D47.png"" style= ""width:200px""alt=""img"">
                                </div>
                            </div>","175","","0","images/D47.png","","",""
"","","","","","html-slider-response","108","376714","0.0-104.0","1fpxqwmnr1","NaN","<div style=""width:500px;"">
                                <p style=""font-size:50px; font-weight:bold;""
                                ></p>
                                <div style=""width:240px; margin: auto;"">
                                    <img src=""images/D63.png"" style= ""width:200px""alt=""img"">
                                </div>
                            </div>","-138","","0","images/D63.png","","",""
"","","","","","html-slider-response","109","379289","0.0-105.0","1fpxqwmnr1","NaN","<div style=""width:500px;"">
                                <p style=""font-size:50px; font-weight:bold;""
                                ></p>
                                <div style=""width:240px; margin: auto;"">
                                    <img src=""images/D94.png"" style= ""width:200px""alt=""img"">
                                </div>
                            </div>","114","","0","images/D94.png","","",""
"","","","","","html-slider-response","110","380701","0.0-106.0","1fpxqwmnr1","NaN","<div style=""width:500px;"">
                                <p style=""font-size:50px; font-weight:bold;""
                                ></p>
                                <div style=""width:240px; margin: auto;"">
                                    <img src=""images/D6.png"" style= ""width:200px""alt=""img"">
                                </div>
                            </div>","200","","0","images/D6.png","","",""
"","","","","","html-slider-response","111","385602","0.0-107.0","1fpxqwmnr1","NaN","<div style=""width:500px;"">
                                <p style=""font-size:50px; font-weight:bold;""
                                ></p>
                                <div style=""width:240px; margin: auto;"">
                                    <img src=""images/D97.png"" style= ""width:200px""alt=""img"">
                                </div>
                            </div>","-58","","0","images/D97.png","","",""
"","","","","","html-slider-response","112","387354","0.0-108.0","1fpxqwmnr1","NaN","<div style=""width:500px;"">
                                <p style=""font-size:50px; font-weight:bold;""
                                ></p>
                                <div style=""width:240px; margin: auto;"">
                                    <img src=""images/D108.png"" style= ""width:200px""alt=""img"">
                                </div>
                            </div>","-200","","0","images/D108.png","","",""
"","","","","","html-slider-response","113","390637","0.0-109.0","1fpxqwmnr1","NaN","<div style=""width:500px;"">
                                <p style=""font-size:50px; font-weight:bold;""
                                ></p>
                                <div style=""width:240px; margin: auto;"">
                                    <img src=""images/D32.png"" style= ""width:200px""alt=""img"">
                                </div>
                            </div>","-64","","0","images/D32.png","","",""
"","","","","","html-slider-response","114","392145","0.0-110.0","1fpxqwmnr1","NaN","<div style=""width:500px;"">
                                <p style=""font-size:50px; font-weight:bold;""
                                ></p>
                                <div style=""width:240px; margin: auto;"">
                                    <img src=""images/D11.png"" style= ""width:200px""alt=""img"">
                                </div>
                            </div>","200","","0","images/D11.png","","",""
"","","","","","html-slider-response","115","393779","0.0-111.0","1fpxqwmnr1","NaN","<div style=""width:500px;"">
                                <p style=""font-size:50px; font-weight:bold;""
                                ></p>
                                <div style=""width:240px; margin: auto;"">
                                    <img src=""images/D34.png"" style= ""width:200px""alt=""img"">
                                </div>
                            </div>","200","","0","images/D34.png","","",""
"","","","","","html-slider-response","116","397386","0.0-112.0","1fpxqwmnr1","NaN","<div style=""width:500px;"">
                                <p style=""font-size:50px; font-weight:bold;""
                                ></p>
                                <div style=""width:240px; margin: auto;"">
                                    <img src=""images/D69.png"" style= ""width:200px""alt=""img"">
                                </div>
                            </div>","-49","","0","images/D69.png","","",""
"","","","","","html-slider-response","117","399202","0.0-113.0","1fpxqwmnr1","NaN","<div style=""width:500px;"">
                                <p style=""font-size:50px; font-weight:bold;""
                                ></p>
                                <div style=""width:240px; margin: auto;"">
                                    <img src=""images/D57.png"" style= ""width:200px""alt=""img"">
                                </div>
                            </div>","58","","0","images/D57.png","","",""
"","","","","","html-slider-response","118","403845","0.0-114.0","1fpxqwmnr1","NaN","<div style=""width:500px;"">
                                <p style=""font-size:50px; font-weight:bold;""
                                ></p>
                                <div style=""width:240px; margin: auto;"">
                                    <img src=""images/D44.png"" style= ""width:200px""alt=""img"">
                                </div>
                            </div>","6","","0","images/D44.png","","",""
"","","","","","html-slider-response","119","410756","0.0-115.0","1fpxqwmnr1","NaN","<div style=""width:500px;"">
                                <p style=""font-size:50px; font-weight:bold;""
                                ></p>
                                <div style=""width:240px; margin: auto;"">
                                    <img src=""images/D42.png"" style= ""width:200px""alt=""img"">
                                </div>
                            </div>","113","","0","images/D42.png","","",""
"","","","","","html-slider-response","120","414116","0.0-116.0","1fpxqwmnr1","NaN","<div style=""width:500px;"">
                                <p style=""font-size:50px; font-weight:bold;""
                                ></p>
                                <div style=""width:240px; margin: auto;"">
                                    <img src=""images/D29.png"" style= ""width:200px""alt=""img"">
                                </div>
                            </div>","-47","","0","images/D29.png","","",""
"","","","","","html-slider-response","121","416707","0.0-117.0","1fpxqwmnr1","NaN","<div style=""width:500px;"">
                                <p style=""font-size:50px; font-weight:bold;""
                                ></p>
                                <div style=""width:240px; margin: auto;"">
                                    <img src=""images/D28.png"" style= ""width:200px""alt=""img"">
                                </div>
                            </div>","-95","","0","images/D28.png","","",""
"","","","","","html-slider-response","122","419655","0.0-118.0","1fpxqwmnr1","NaN","<div style=""width:500px;"">
                                <p style=""font-size:50px; font-weight:bold;""
                                ></p>
                                <div style=""width:240px; margin: auto;"">
                                    <img src=""images/D83.png"" style= ""width:200px""alt=""img"">
                                </div>
                            </div>","150","","0","images/D83.png","","",""
"","","","","","html-slider-response","123","421711","0.0-119.0","1fpxqwmnr1","NaN","<div style=""width:500px;"">
                                <p style=""font-size:50px; font-weight:bold;""
                                ></p>
                                <div style=""width:240px; margin: auto;"">
                                    <img src=""images/D17.png"" style= ""width:200px""alt=""img"">
                                </div>
                            </div>","166","","0","images/D17.png","","",""
"","","","","","html-slider-response","124","423468","0.0-120.0","1fpxqwmnr1","NaN","<div style=""width:500px;"">
                                <p style=""font-size:50px; font-weight:bold;""
                                ></p>
                                <div style=""width:240px; margin: auto;"">
                                    <img src=""images/D65.png"" style= ""width:200px""alt=""img"">
                                </div>
                            </div>","200","","0","images/D65.png","","",""
"","","","","","html-slider-response","125","425041","0.0-121.0","1fpxqwmnr1","NaN","<div style=""width:500px;"">
                                <p style=""font-size:50px; font-weight:bold;""
                                ></p>
                                <div style=""width:240px; margin: auto;"">
                                    <img src=""images/D82.png"" style= ""width:200px""alt=""img"">
                                </div>
                            </div>","200","","0","images/D82.png","","",""
"","","","","","html-slider-response","126","427996","0.0-122.0","1fpxqwmnr1","NaN","<div style=""width:500px;"">
                                <p style=""font-size:50px; font-weight:bold;""
                                ></p>
                                <div style=""width:240px; margin: auto;"">
                                    <img src=""images/D4.png"" style= ""width:200px""alt=""img"">
                                </div>
                            </div>","-19","","0","images/D4.png","","",""
"","","","","","html-slider-response","127","429816","0.0-123.0","1fpxqwmnr1","NaN","<div style=""width:500px;"">
                                <p style=""font-size:50px; font-weight:bold;""
                                ></p>
                                <div style=""width:240px; margin: auto;"">
                                    <img src=""images/D45.png"" style= ""width:200px""alt=""img"">
                                </div>
                            </div>","-175","","0","images/D45.png","","",""
"","","","","","html-slider-response","128","431642","0.0-124.0","1fpxqwmnr1","NaN","<div style=""width:500px;"">
                                <p style=""font-size:50px; font-weight:bold;""
                                ></p>
                                <div style=""width:240px; margin: auto;"">
                                    <img src=""images/D72.png"" style= ""width:200px""alt=""img"">
                                </div>
                            </div>","-139","","0","images/D72.png","","",""
"","","","","","html-slider-response","129","434024","0.0-125.0","1fpxqwmnr1","NaN","<div style=""width:500px;"">
                                <p style=""font-size:50px; font-weight:bold;""
                                ></p>
                                <div style=""width:240px; margin: auto;"">
                                    <img src=""images/D22.png"" style= ""width:200px""alt=""img"">
                                </div>
                            </div>","34","","0","images/D22.png","","",""
"","","","","","html-slider-response","130","436003","0.0-126.0","1fpxqwmnr1","NaN","<div style=""width:500px;"">
                                <p style=""font-size:50px; font-weight:bold;""
                                ></p>
                                <div style=""width:240px; margin: auto;"">
                                    <img src=""images/D54.png"" style= ""width:200px""alt=""img"">
                                </div>
                            </div>","-28","","0","images/D54.png","","",""
"","","","","","html-button-response","131","437358","0.0-127.0","1fpxqwmnr1","853","You have completed 50% of the trials. Please click 'Continue' when you are ready proceed.","0","","","","","",""
"","","","","","html-slider-response","132","441787","0.0-128.0","1fpxqwmnr1","NaN","<div style=""width:500px;"">
                                <p style=""font-size:50px; font-weight:bold;""
                                ></p>
                                <div style=""width:240px; margin: auto;"">
                                    <img src=""images/D13.png"" style= ""width:200px""alt=""img"">
                                </div>
                            </div>","-106","","0","images/D13.png","","",""
"","","","","","html-slider-response","133","444222","0.0-129.0","1fpxqwmnr1","NaN","<div style=""width:500px;"">
                                <p style=""font-size:50px; font-weight:bold;""
                                ></p>
                                <div style=""width:240px; margin: auto;"">
                                    <img src=""images/D15.png"" style= ""width:200px""alt=""img"">
                                </div>
                            </div>","-126","","0","images/D15.png","","",""
"","","","","","html-slider-response","134","446251","0.0-130.0","1fpxqwmnr1","NaN","<div style=""width:500px;"">
                                <p style=""font-size:50px; font-weight:bold;""
                                ></p>
                                <div style=""width:240px; margin: auto;"">
                                    <img src=""images/D110.png"" style= ""width:200px""alt=""img"">
                                </div>
                            </div>","-50","","0","images/D110.png","","",""
"","","","","","html-slider-response","135","448008","0.0-131.0","1fpxqwmnr1","NaN","<div style=""width:500px;"">
                                <p style=""font-size:50px; font-weight:bold;""
                                ></p>
                                <div style=""width:240px; margin: auto;"">
                                    <img src=""images/D28.png"" style= ""width:200px""alt=""img"">
                                </div>
                            </div>","-21","","0","images/D28.png","","",""
"","","","","","html-slider-response","136","449648","0.0-132.0","1fpxqwmnr1","NaN","<div style=""width:500px;"">
                                <p style=""font-size:50px; font-weight:bold;""
                                ></p>
                                <div style=""width:240px; margin: auto;"">
                                    <img src=""images/D5.png"" style= ""width:200px""alt=""img"">
                                </div>
                            </div>","-34","","0","images/D5.png","","",""
"","","","","","html-slider-response","137","451919","0.0-133.0","1fpxqwmnr1","NaN","<div style=""width:500px;"">
                                <p style=""font-size:50px; font-weight:bold;""
                                ></p>
                                <div style=""width:240px; margin: auto;"">
                                    <img src=""images/D51.png"" style= ""width:200px""alt=""img"">
                                </div>
                            </div>","24","","0","images/D51.png","","",""
"","","","","","html-slider-response","138","453641","0.0-134.0","1fpxqwmnr1","NaN","<div style=""width:500px;"">
                                <p style=""font-size:50px; font-weight:bold;""
                                ></p>
                                <div style=""width:240px; margin: auto;"">
                                    <img src=""images/D19.png"" style= ""width:200px""alt=""img"">
                                </div>
                            </div>","47","","0","images/D19.png","","",""
"","","","","","html-slider-response","139","455387","0.0-135.0","1fpxqwmnr1","NaN","<div style=""width:500px;"">
                                <p style=""font-size:50px; font-weight:bold;""
                                ></p>
                                <div style=""width:240px; margin: auto;"">
                                    <img src=""images/D83.png"" style= ""width:200px""alt=""img"">
                                </div>
                            </div>","121","","0","images/D83.png","","",""
"","","","","","html-slider-response","140","457128","0.0-136.0","1fpxqwmnr1","NaN","<div style=""width:500px;"">
                                <p style=""font-size:50px; font-weight:bold;""
                                ></p>
                                <div style=""width:240px; margin: auto;"">
                                    <img src=""images/D91.png"" style= ""width:200px""alt=""img"">
                                </div>
                            </div>","-97","","0","images/D91.png","","",""
"","","","","","html-slider-response","141","459245","0.0-137.0","1fpxqwmnr1","NaN","<div style=""width:500px;"">
                                <p style=""font-size:50px; font-weight:bold;""
                                ></p>
                                <div style=""width:240px; margin: auto;"">
                                    <img src=""images/D82.png"" style= ""width:200px""alt=""img"">
                                </div>
                            </div>","92","","0","images/D82.png","","",""
"","","","","","html-slider-response","142","461426","0.0-138.0","1fpxqwmnr1","NaN","<div style=""width:500px;"">
                                <p style=""font-size:50px; font-weight:bold;""
                                ></p>
                                <div style=""width:240px; margin: auto;"">
                                    <img src=""images/D86.png"" style= ""width:200px""alt=""img"">
                                </div>
                            </div>","-60","","0","images/D86.png","","",""
"","","","","","html-slider-response","143","463476","0.0-139.0","1fpxqwmnr1","NaN","<div style=""width:500px;"">
                                <p style=""font-size:50px; font-weight:bold;""
                                ></p>
                                <div style=""width:240px; margin: auto;"">
                                    <img src=""images/D11.png"" style= ""width:200px""alt=""img"">
                                </div>
                            </div>","114","","0","images/D11.png","","",""
"","","","","","html-slider-response","144","466519","0.0-140.0","1fpxqwmnr1","NaN","<div style=""width:500px;"">
                                <p style=""font-size:50px; font-weight:bold;""
                                ></p>
                                <div style=""width:240px; margin: auto;"">
                                    <img src=""images/D10.png"" style= ""width:200px""alt=""img"">
                                </div>
                            </div>","-40","","0","images/D10.png","","",""
"","","","","","html-slider-response","145","471026","0.0-141.0","1fpxqwmnr1","NaN","<div style=""width:500px;"">
                                <p style=""font-size:50px; font-weight:bold;""
                                ></p>
                                <div style=""width:240px; margin: auto;"">
                                    <img src=""images/D66.png"" style= ""width:200px""alt=""img"">
                                </div>
                            </div>","-18","","0","images/D66.png","","",""
"","","","","","html-slider-response","146","473584","0.0-142.0","1fpxqwmnr1","NaN","<div style=""width:500px;"">
                                <p style=""font-size:50px; font-weight:bold;""
                                ></p>
                                <div style=""width:240px; margin: auto;"">
                                    <img src=""images/D46.png"" style= ""width:200px""alt=""img"">
                                </div>
                            </div>","177","","0","images/D46.png","","",""
"","","","","","html-slider-response","147","475524","0.0-143.0","1fpxqwmnr1","NaN","<div style=""width:500px;"">
                                <p style=""font-size:50px; font-weight:bold;""
                                ></p>
                                <div style=""width:240px; margin: auto;"">
                                    <img src=""images/D14.png"" style= ""width:200px""alt=""img"">
                                </div>
                            </div>","165","","0","images/D14.png","","",""
"","","","","","html-slider-response","148","479029","0.0-144.0","1fpxqwmnr1","NaN","<div style=""width:500px;"">
                                <p style=""font-size:50px; font-weight:bold;""
                                ></p>
                                <div style=""width:240px; margin: auto;"">
                                    <img src=""images/D81.png"" style= ""width:200px""alt=""img"">
                                </div>
                            </div>","29","","0","images/D81.png","","",""
"","","","","","html-slider-response","149","480872","0.0-145.0","1fpxqwmnr1","NaN","<div style=""width:500px;"">
                                <p style=""font-size:50px; font-weight:bold;""
                                ></p>
                                <div style=""width:240px; margin: auto;"">
                                    <img src=""images/D68.png"" style= ""width:200px""alt=""img"">
                                </div>
                            </div>","42","","0","images/D68.png","","",""
"","","","","","html-slider-response","150","485135","0.0-146.0","1fpxqwmnr1","NaN","<div style=""width:500px;"">
                                <p style=""font-size:50px; font-weight:bold;""
                                ></p>
                                <div style=""width:240px; margin: auto;"">
                                    <img src=""images/D111.png"" style= ""width:200px""alt=""img"">
                                </div>
                            </div>","-17","","0","images/D111.png","","",""
"","","","","","html-slider-response","151","486769","0.0-147.0","1fpxqwmnr1","NaN","<div style=""width:500px;"">
                                <p style=""font-size:50px; font-weight:bold;""
                                ></p>
                                <div style=""width:240px; margin: auto;"">
                                    <img src=""images/D108.png"" style= ""width:200px""alt=""img"">
                                </div>
                            </div>","-102","","0","images/D108.png","","",""
"","","","","","html-slider-response","152","489190","0.0-148.0","1fpxqwmnr1","NaN","<div style=""width:500px;"">
                                <p style=""font-size:50px; font-weight:bold;""
                                ></p>
                                <div style=""width:240px; margin: auto;"">
                                    <img src=""images/D98.png"" style= ""width:200px""alt=""img"">
                                </div>
                            </div>","-54","","0","images/D98.png","","",""
"","","","","","html-slider-response","153","491451","0.0-149.0","1fpxqwmnr1","NaN","<div style=""width:500px;"">
                                <p style=""font-size:50px; font-weight:bold;""
                                ></p>
                                <div style=""width:240px; margin: auto;"">
                                    <img src=""images/D24.png"" style= ""width:200px""alt=""img"">
                                </div>
                            </div>","-3","","0","images/D24.png","","",""
"","","","","","html-slider-response","154","493240","0.0-150.0","1fpxqwmnr1","NaN","<div style=""width:500px;"">
                                <p style=""font-size:50px; font-weight:bold;""
                                ></p>
                                <div style=""width:240px; margin: auto;"">
                                    <img src=""images/D21.png"" style= ""width:200px""alt=""img"">
                                </div>
                            </div>","145","","0","images/D21.png","","",""
"","","","","","html-slider-response","155","495156","0.0-151.0","1fpxqwmnr1","NaN","<div style=""width:500px;"">
                                <p style=""font-size:50px; font-weight:bold;""
                                ></p>
                                <div style=""width:240px; margin: auto;"">
                                    <img src=""images/D76.png"" style= ""width:200px""alt=""img"">
                                </div>
                            </div>","200","","0","images/D76.png","","",""
"","","","","","html-slider-response","156","496600","0.0-152.0","1fpxqwmnr1","NaN","<div style=""width:500px;"">
                                <p style=""font-size:50px; font-weight:bold;""
                                ></p>
                                <div style=""width:240px; margin: auto;"">
                                    <img src=""images/D107.png"" style= ""width:200px""alt=""img"">
                                </div>
                            </div>","-200","","0","images/D107.png","","",""
"","","","","","html-slider-response","157","499141","0.0-153.0","1fpxqwmnr1","NaN","<div style=""width:500px;"">
                                <p style=""font-size:50px; font-weight:bold;""
                                ></p>
                                <div style=""width:240px; margin: auto;"">
                                    <img src=""images/D43.png"" style= ""width:200px""alt=""img"">
                                </div>
                            </div>","-138","","0","images/D43.png","","",""
"","","","","","html-slider-response","158","501036","0.0-154.0","1fpxqwmnr1","NaN","<div style=""width:500px;"">
                                <p style=""font-size:50px; font-weight:bold;""
                                ></p>
                                <div style=""width:240px; margin: auto;"">
                                    <img src=""images/D100.png"" style= ""width:200px""alt=""img"">
                                </div>
                            </div>","-34","","0","images/D100.png","","",""
"","","","","","html-slider-response","159","502829","0.0-155.0","1fpxqwmnr1","NaN","<div style=""width:500px;"">
                                <p style=""font-size:50px; font-weight:bold;""
                                ></p>
                                <div style=""width:240px; margin: auto;"">
                                    <img src=""images/D30.png"" style= ""width:200px""alt=""img"">
                                </div>
                            </div>","-14","","0","images/D30.png","","",""
"","","","","","html-slider-response","160","505582","0.0-156.0","1fpxqwmnr1","NaN","<div style=""width:500px;"">
                                <p style=""font-size:50px; font-weight:bold;""
                                ></p>
                                <div style=""width:240px; margin: auto;"">
                                    <img src=""images/D74.png"" style= ""width:200px""alt=""img"">
                                </div>
                            </div>","-5","","0","images/D74.png","","",""
"","","","","","html-slider-response","161","507436","0.0-157.0","1fpxqwmnr1","NaN","<div style=""width:500px;"">
                                <p style=""font-size:50px; font-weight:bold;""
                                ></p>
                                <div style=""width:240px; margin: auto;"">
                                    <img src=""images/D60.png"" style= ""width:200px""alt=""img"">
                                </div>
                            </div>","-114","","0","images/D60.png","","",""
"","","","","","html-slider-response","162","509477","0.0-158.0","1fpxqwmnr1","NaN","<div style=""width:500px;"">
                                <p style=""font-size:50px; font-weight:bold;""
                                ></p>
                                <div style=""width:240px; margin: auto;"">
                                    <img src=""images/D78.png"" style= ""width:200px""alt=""img"">
                                </div>
                            </div>","104","","0","images/D78.png","","",""
"","","","","","html-slider-response","163","511085","0.0-159.0","1fpxqwmnr1","NaN","<div style=""width:500px;"">
                                <p style=""font-size:50px; font-weight:bold;""
                                ></p>
                                <div style=""width:240px; margin: auto;"">
                                    <img src=""images/D63.png"" style= ""width:200px""alt=""img"">
                                </div>
                            </div>","-107","","0","images/D63.png","","",""
"","","","","","html-slider-response","164","512666","0.0-160.0","1fpxqwmnr1","NaN","<div style=""width:500px;"">
                                <p style=""font-size:50px; font-weight:bold;""
                                ></p>
                                <div style=""width:240px; margin: auto;"">
                                    <img src=""images/D57.png"" style= ""width:200px""alt=""img"">
                                </div>
                            </div>","31","","0","images/D57.png","","",""
"","","","","","html-slider-response","165","514881","0.0-161.0","1fpxqwmnr1","NaN","<div style=""width:500px;"">
                                <p style=""font-size:50px; font-weight:bold;""
                                ></p>
                                <div style=""width:240px; margin: auto;"">
                                    <img src=""images/D39.png"" style= ""width:200px""alt=""img"">
                                </div>
                            </div>","39","","0","images/D39.png","","",""
"","","","","","html-slider-response","166","518116","0.0-162.0","1fpxqwmnr1","NaN","<div style=""width:500px;"">
                                <p style=""font-size:50px; font-weight:bold;""
                                ></p>
                                <div style=""width:240px; margin: auto;"">
                                    <img src=""images/D32.png"" style= ""width:200px""alt=""img"">
                                </div>
                            </div>","0","","0","images/D32.png","","",""
"","","","","","html-slider-response","167","519873","0.0-163.0","1fpxqwmnr1","NaN","<div style=""width:500px;"">
                                <p style=""font-size:50px; font-weight:bold;""
                                ></p>
                                <div style=""width:240px; margin: auto;"">
                                    <img src=""images/D89.png"" style= ""width:200px""alt=""img"">
                                </div>
                            </div>","-137","","0","images/D89.png","","",""
"","","","","","html-slider-response","168","521579","0.0-164.0","1fpxqwmnr1","NaN","<div style=""width:500px;"">
                                <p style=""font-size:50px; font-weight:bold;""
                                ></p>
                                <div style=""width:240px; margin: auto;"">
                                    <img src=""images/D64.png"" style= ""width:200px""alt=""img"">
                                </div>
                            </div>","200","","0","images/D64.png","","",""
"","","","","","html-slider-response","169","523059","0.0-165.0","1fpxqwmnr1","NaN","<div style=""width:500px;"">
                                <p style=""font-size:50px; font-weight:bold;""
                                ></p>
                                <div style=""width:240px; margin: auto;"">
                                    <img src=""images/D52.png"" style= ""width:200px""alt=""img"">
                                </div>
                            </div>","200","","0","images/D52.png","","",""
"","","","","","html-slider-response","170","525677","0.0-166.0","1fpxqwmnr1","NaN","<div style=""width:500px;"">
                                <p style=""font-size:50px; font-weight:bold;""
                                ></p>
                                <div style=""width:240px; margin: auto;"">
                                    <img src=""images/D109.png"" style= ""width:200px""alt=""img"">
                                </div>
                            </div>","-32","","0","images/D109.png","","",""
"","","","","","html-slider-response","171","528199","0.0-167.0","1fpxqwmnr1","NaN","<div style=""width:500px;"">
                                <p style=""font-size:50px; font-weight:bold;""
                                ></p>
                                <div style=""width:240px; margin: auto;"">
                                    <img src=""images/D29.png"" style= ""width:200px""alt=""img"">
                                </div>
                            </div>","7","","0","images/D29.png","","",""
"","","","","","html-slider-response","172","529909","0.0-168.0","1fpxqwmnr1","NaN","<div style=""width:500px;"">
                                <p style=""font-size:50px; font-weight:bold;""
                                ></p>
                                <div style=""width:240px; margin: auto;"">
                                    <img src=""images/D53.png"" style= ""width:200px""alt=""img"">
                                </div>
                            </div>","200","","0","images/D53.png","","",""
"","","","","","html-slider-response","173","531670","0.0-169.0","1fpxqwmnr1","NaN","<div style=""width:500px;"">
                                <p style=""font-size:50px; font-weight:bold;""
                                ></p>
                                <div style=""width:240px; margin: auto;"">
                                    <img src=""images/D84.png"" style= ""width:200px""alt=""img"">
                                </div>
                            </div>","140","","0","images/D84.png","","",""
"","","","","","html-slider-response","174","533159","0.0-170.0","1fpxqwmnr1","NaN","<div style=""width:500px;"">
                                <p style=""font-size:50px; font-weight:bold;""
                                ></p>
                                <div style=""width:240px; margin: auto;"">
                                    <img src=""images/D73.png"" style= ""width:200px""alt=""img"">
                                </div>
                            </div>","-79","","0","images/D73.png","","",""
"","","","","","html-slider-response","175","535286","0.0-171.0","1fpxqwmnr1","NaN","<div style=""width:500px;"">
                                <p style=""font-size:50px; font-weight:bold;""
                                ></p>
                                <div style=""width:240px; margin: auto;"">
                                    <img src=""images/D54.png"" style= ""width:200px""alt=""img"">
                                </div>
                            </div>","-18","","0","images/D54.png","","",""
"","","","","","html-slider-response","176","537912","0.0-172.0","1fpxqwmnr1","NaN","<div style=""width:500px;"">
                                <p style=""font-size:50px; font-weight:bold;""
                                ></p>
                                <div style=""width:240px; margin: auto;"">
                                    <img src=""images/D48.png"" style= ""width:200px""alt=""img"">
                                </div>
                            </div>","-3","","0","images/D48.png","","",""
"","","","","","html-slider-response","177","539484","0.0-173.0","1fpxqwmnr1","NaN","<div style=""width:500px;"">
                                <p style=""font-size:50px; font-weight:bold;""
                                ></p>
                                <div style=""width:240px; margin: auto;"">
                                    <img src=""images/D45.png"" style= ""width:200px""alt=""img"">
                                </div>
                            </div>","-107","","0","images/D45.png","","",""
"","","","","","html-slider-response","178","541150","0.0-174.0","1fpxqwmnr1","NaN","<div style=""width:500px;"">
                                <p style=""font-size:50px; font-weight:bold;""
                                ></p>
                                <div style=""width:240px; margin: auto;"">
                                    <img src=""images/D88.png"" style= ""width:200px""alt=""img"">
                                </div>
                            </div>","-200","","0","images/D88.png","","",""
"","","","","","html-slider-response","179","543360","0.0-175.0","1fpxqwmnr1","NaN","<div style=""width:500px;"">
                                <p style=""font-size:50px; font-weight:bold;""
                                ></p>
                                <div style=""width:240px; margin: auto;"">
                                    <img src=""images/D56.png"" style= ""width:200px""alt=""img"">
                                </div>
                            </div>","178","","0","images/D56.png","","",""
"","","","","","html-slider-response","180","587081","0.0-176.0","1fpxqwmnr1","NaN","<div style=""width:500px;"">
                                <p style=""font-size:50px; font-weight:bold;""
                                ></p>
                                <div style=""width:240px; margin: auto;"">
                                    <img src=""images/D90.png"" style= ""width:200px""alt=""img"">
                                </div>
                            </div>","-162","","0","images/D90.png","","",""
"","","","","","html-slider-response","181","589099","0.0-177.0","1fpxqwmnr1","NaN","<div style=""width:500px;"">
                                <p style=""font-size:50px; font-weight:bold;""
                                ></p>
                                <div style=""width:240px; margin: auto;"">
                                    <img src=""images/D87.png"" style= ""width:200px""alt=""img"">
                                </div>
                            </div>","67","","0","images/D87.png","","",""
"","","","","","html-slider-response","182","590591","0.0-178.0","1fpxqwmnr1","NaN","<div style=""width:500px;"">
                                <p style=""font-size:50px; font-weight:bold;""
                                ></p>
                                <div style=""width:240px; margin: auto;"">
                                    <img src=""images/D104.png"" style= ""width:200px""alt=""img"">
                                </div>
                            </div>","110","","0","images/D104.png","","",""
"","","","","","html-slider-response","183","592083","0.0-179.0","1fpxqwmnr1","NaN","<div style=""width:500px;"">
                                <p style=""font-size:50px; font-weight:bold;""
                                ></p>
                                <div style=""width:240px; margin: auto;"">
                                    <img src=""images/D50.png"" style= ""width:200px""alt=""img"">
                                </div>
                            </div>","83","","0","images/D50.png","","",""
"","","","","","html-slider-response","184","593754","0.0-180.0","1fpxqwmnr1","NaN","<div style=""width:500px;"">
                                <p style=""font-size:50px; font-weight:bold;""
                                ></p>
                                <div style=""width:240px; margin: auto;"">
                                    <img src=""images/D85.png"" style= ""width:200px""alt=""img"">
                                </div>
                            </div>","138","","0","images/D85.png","","",""
"","","","","","html-slider-response","185","595331","0.0-181.0","1fpxqwmnr1","NaN","<div style=""width:500px;"">
                                <p style=""font-size:50px; font-weight:bold;""
                                ></p>
                                <div style=""width:240px; margin: auto;"">
                                    <img src=""images/D42.png"" style= ""width:200px""alt=""img"">
                                </div>
                            </div>","66","","0","images/D42.png","","",""
"","","","","","html-slider-response","186","596802","0.0-182.0","1fpxqwmnr1","NaN","<div style=""width:500px;"">
                                <p style=""font-size:50px; font-weight:bold;""
                                ></p>
                                <div style=""width:240px; margin: auto;"">
                                    <img src=""images/D106.png"" style= ""width:200px""alt=""img"">
                                </div>
                            </div>","63","","0","images/D106.png","","",""
"","","","","","html-slider-response","187","598229","0.0-183.0","1fpxqwmnr1","NaN","<div style=""width:500px;"">
                                <p style=""font-size:50px; font-weight:bold;""
                                ></p>
                                <div style=""width:240px; margin: auto;"">
                                    <img src=""images/D20.png"" style= ""width:200px""alt=""img"">
                                </div>
                            </div>","134","","0","images/D20.png","","",""
"","","","","","html-button-response","188","599572","0.0-184.0","1fpxqwmnr1","841","You have completed 75% of the trials. Please click 'Continue' when you are ready proceed.","0","","","","","",""
"","","","","","html-slider-response","189","601012","0.0-185.0","1fpxqwmnr1","NaN","<div style=""width:500px;"">
                                <p style=""font-size:50px; font-weight:bold;""
                                ></p>
                                <div style=""width:240px; margin: auto;"">
                                    <img src=""images/D101.png"" style= ""width:200px""alt=""img"">
                                </div>
                            </div>","188","","0","images/D101.png","","",""
"","","","","","html-slider-response","190","603380","0.0-186.0","1fpxqwmnr1","NaN","<div style=""width:500px;"">
                                <p style=""font-size:50px; font-weight:bold;""
                                ></p>
                                <div style=""width:240px; margin: auto;"">
                                    <img src=""images/D75.png"" style= ""width:200px""alt=""img"">
                                </div>
                            </div>","-18","","0","images/D75.png","","",""
"","","","","","html-slider-response","191","605081","0.0-187.0","1fpxqwmnr1","NaN","<div style=""width:500px;"">
                                <p style=""font-size:50px; font-weight:bold;""
                                ></p>
                                <div style=""width:240px; margin: auto;"">
                                    <img src=""images/D61.png"" style= ""width:200px""alt=""img"">
                                </div>
                            </div>","-138","","0","images/D61.png","","",""
"","","","","","html-slider-response","192","606716","0.0-188.0","1fpxqwmnr1","NaN","<div style=""width:500px;"">
                                <p style=""font-size:50px; font-weight:bold;""
                                ></p>
                                <div style=""width:240px; margin: auto;"">
                                    <img src=""images/D3.png"" style= ""width:200px""alt=""img"">
                                </div>
                            </div>","70","","0","images/D3.png","","",""
"","","","","","html-slider-response","193","609367","0.0-189.0","1fpxqwmnr1","NaN","<div style=""width:500px;"">
                                <p style=""font-size:50px; font-weight:bold;""
                                ></p>
