"success","timeout","failed_images","failed_audio","failed_video","trial_type","trial_index","time_elapsed","internal_node_id","subject_id","rt","stimulus","response","question_order","slider_start","image_path","practiceTrial","practiceTrialNum","correct"
"true","false","[]","[]","[]","preload","0","617","0.0-0.0","lza0kbojh4","","","","","","","","",""
"","","","","","html-button-response","1","2133","0.0-1.0","lza0kbojh4","1514","<div style='text-align:center; font-size:20px; line-height:25px; width: 1200px;'>
                Welcome to our experiment! <br>
                <br>At the bottom of this screen, you will see a button that says 'Begin Experiment.
                <br>Please only click that button when you are ready to complete the 25 minute experiment in one sitting. <br>
                <br> Once you click that button, it will not be possible to restart the experiment. <br><br>","0","","","","","",""
"true","","","","","fullscreen","2","4342","0.0-2.0","lza0kbojh4","1194","","","","","","","",""
"","","","","","survey-multi-select","3","29132","0.0-3.0","lza0kbojh4","24786","","{""Consent"":[""<strong>I consent</strong>""]}","[0]","","","","",""
"","","","","","html-button-response","4","32058","0.0-4.0","lza0kbojh4","2923","Welcome! <p> This experiment involves two parts: demographic information, followed by the experimental task.<p> It will take about 25 minutes to complete both parts.","0","","","","","",""
"","","","","","survey-text","5","41214","0.0-5.0","lza0kbojh4","9152","","{""Age"":""19"",""Gender"":""Female"",""Race/ethnicity"":""Asian""}","","","","","",""
"","","","","","html-button-response","6","56839","0.0-6.0","lza0kbojh4","15623","
        <div style=""width:100%; display:flex; justify-content:center; align-items: flex-start; height: auto; flex-direction: column; margin-top: 80px; margin-bottom: 50px;"">

            <!-- Centered Header Text -->
            <div style=""width:1200px; text-align:left; font-size:24px; margin-top:-250px; margin-left: 80px;"">
                During this experiment, you will be presented with images of textures.
            </div>

            <!-- First Row: Uniform Textures -->
            <div style=""width:1200px; text-align:left; font-size:24px; margin-top: 50px; margin-bottom: 10px;"">
                <div style=""display: flex; justify-content: flex-start; align-items: center;"">
                    <span style=""width:45%; margin-left: 80px; margin-right: 20px;"">
                        Some of the textures will appear very 'uniform,' which means they appear similar across the whole image. 
                        The textures to the right are examples of very uniform texture.
                    </span>
                    <img src=""uniform_ex.png"" alt=""Uniform Texture"" style=""width:200px; height:auto; margin-left:120px; margin-right: 20px;"">
                    <img src=""uniform_ex2.png"" alt=""New Uniform Texture"" style=""width:200px; height:auto; margin-left:50px;"">
                </div>
            </div>

            <!-- Second Row: Non-Uniform Textures -->
            <div style=""width:1200px; text-align:left; font-size:24px; margin-top: 50px; margin-bottom: 10px;"">
                <div style=""display: flex; justify-content: flex-start; align-items: center;"">
                    <span style=""width:45%; margin-left: 80px; margin-right: 20px;"">
                        Some of the textures will appear very 'non-uniform,' which means they look different in different parts of the image. 
                        The textures to the right are examples of very non-uniform textures.
                    </span>
                    <img src=""not_uniform_ex.png"" alt=""Non-Uniform Texture"" style=""width:200px; height:auto; margin-left:120px; margin-right: 20px;"">
                    <img src=""not_uniform_ex2.png"" alt=""New Non-Uniform Texture"" style=""width:200px; height:auto; margin-left:50px;"">
                </div>
                </div>
        ","0","","","","","",""
"","","","","","html-slider-response","7","78537","0.0-7.0","lza0kbojh4","21692","
                <div style='text-align:left; height: auto; margin-left=-100px; margin-bottom: -20px; font-size:20px; line-height:25px; width: 1200px;'>
                    <br>During this experiment, you will see a series of textures, one at a time, like the ones below. 
                </div>
                    <br>
                    <br>
                    <img src=""anchoring_visual_textures2.png"" alt=""img"" style=""max-width:1200px; margin-left: -10px;"">
                </div>
                <div style=""clear: both;""></div>
                </div>
                    <div style='text-align:left; margin-left=-100px; font-size:20px; line-height:25px; width: 1200px; margin-top: -50px;'>
                    <br> Your task is to rate how uniform the texture appears on a scale from 'not at all uniform' to 'very much uniform,' like the one below.
                    <br><br> So you know what 'very much uniform' and 'not at all uniform' means to you in the context of these textures, please think about which textures below you consider 'very much uniform,' and which textures below you consider 'not at all uniform.'
                    <br><br>When you see a texture during the experiment that you consider 'very much uniform', please rate it near the 'very much uniform' endpoint of the
                    scale.<br><br> When you see a texture during the experiment that you consider 'not at all uniform', please rate it near the 'not at all uniform' endpoint
                    of the scale.<br><br>
                    Please use the full range of the scale. That is, if an texture is somewhat uniform, you would
                    click partway between the middle point and right side of the scale.                    You will be asked to rate each texture on its uniformity.<br><br>Press the
                    'Continue' button for instructions on how to use the slider.                     <br><br>
                ","-103","","0","visual_textures_anchoring.png","true","",""
"","","","","","html-button-response","8","80370","0.0-8.0","lza0kbojh4","1831","<div style=""width:1200px; margin-top:-150px;""><p style=""text-align:center; font-size:24px;"">To move the slider, click and drag your cursor to the location of the scale where you would like to make your rating and then let go. <br><br> When you let go of the slider, your response will be recorded and the next trial will begin. <br><br><br>
                We are interested in your initial impressions of each image's uniformity, so please go with your first intuition. <br><br>
                Before you begin the experiment, there will be four training trials for you to practice using the scale. <br><br><br><br></div>
                <div style=""width:1200px;""><p style=""text-align:center; font-size:20px;"">When you are ready to start the training trials, please click ""Continue"".</p></div>","0","","","","","",""
"","","","","","html-slider-response","9","84213","0.0-9.0-0.0","lza0kbojh4","NaN","<div style=""width:500px;"">
                                <p style=""font-size:25px;"">Please move the slider all the way to the <br> right endpoint of the scale</p>

                                </div>
                            </div>","200","","0","","true","0","true"
"","","","","","html-button-response","10","85425","0.0-9.0-1.0","lza0kbojh4","711","<p align='center'><b>Good job!</b> Click on 'Continue' to proceed.</p>","0","","","","","",""
"","","","","","html-slider-response","11","86663","0.0-10.0-0.0","lza0kbojh4","NaN","<div style=""width:500px;"">
                                <p style=""font-size:25px;"">Please move the slider all the way to the <br> left endpoint of the scale</p>

                                </div>
                            </div>","-200","","0","","true","1","true"
"","","","","","html-button-response","12","88340","0.0-10.0-1.0","lza0kbojh4","1169","<p align='center'><b>Good job!</b> Click on 'Continue' to proceed.</p>","0","","","","","",""
"","","","","","html-slider-response","13","93307","0.0-11.0-0.0","lza0kbojh4","NaN","<div style=""width:500px;"">
                                <p style=""font-size:25px;"">Please move the slider halfway between the center and right endpoint of the scale</p>

                                </div>
                            </div>","105","","0","","true","2","true"
"","","","","","html-button-response","14","94625","0.0-11.0-1.0","lza0kbojh4","811","<p align='center'><b>Good job!</b> Click on 'Continue' to proceed.</p>","0","","","","","",""
"","","","","","html-slider-response","15","96871","0.0-12.0-0.0","lza0kbojh4","NaN","<div style=""width:500px;"">
                                <p style=""font-size:25px;"">Please move the slider halfway between the center and left endpoint of the scale</p>

                                </div>
                            </div>","-109","","0","","true","3","true"
"","","","","","html-button-response","16","98577","0.0-12.0-1.0","lza0kbojh4","1196","<p align='center'><b>Good job!</b> Click on 'Continue' to proceed.</p>","0","","","","","",""
"","","","","","html-button-response","17","99803","0.0-13.0","lza0kbojh4","1224","<div style=""width:800px; margin-top:-300px;""><p style=""text-align:center; font-size:22px; line-height:25px;""""> Great job! You've completed the practice trials.</div>
                     <div style=""width:800px; margin-top:-20px;""><p style=""text-align:center""><br><br> In the following trials, you will be asked to rate images on their uniformity one-by-one. <br> You will be given an oprtunities to take breaks when you have completed 25%, 50% and 75% of the trials. <br><br> Please click continue to begin the main task.<br><br><br> </div>","0","","","","","",""
"","","","","","html-slider-response","18","103136","0.0-14.0","lza0kbojh4","NaN","<div style=""width:500px;"">
                                <p style=""font-size:50px; font-weight:bold;""
                                ></p>
                                <div style=""width:240px; margin: auto;"">
                                    <img src=""images/D14.png"" style= ""width:200px""alt=""img"">
                                </div>
                            </div>","113","","0","images/D14.png","","",""
"","","","","","html-slider-response","19","105338","0.0-15.0","lza0kbojh4","NaN","<div style=""width:500px;"">
                                <p style=""font-size:50px; font-weight:bold;""
                                ></p>
                                <div style=""width:240px; margin: auto;"">
                                    <img src=""images/D11.png"" style= ""width:200px""alt=""img"">
                                </div>
                            </div>","123","","0","images/D11.png","","",""
"","","","","","html-slider-response","20","107423","0.0-16.0","lza0kbojh4","NaN","<div style=""width:500px;"">
                                <p style=""font-size:50px; font-weight:bold;""
                                ></p>
                                <div style=""width:240px; margin: auto;"">
                                    <img src=""images/D63.png"" style= ""width:200px""alt=""img"">
                                </div>
                            </div>","-176","","0","images/D63.png","","",""
"","","","","","html-slider-response","21","109293","0.0-17.0","lza0kbojh4","NaN","<div style=""width:500px;"">
                                <p style=""font-size:50px; font-weight:bold;""
                                ></p>
                                <div style=""width:240px; margin: auto;"">
                                    <img src=""images/D75.png"" style= ""width:200px""alt=""img"">
                                </div>
                            </div>","-111","","0","images/D75.png","","",""
"","","","","","html-slider-response","22","111357","0.0-18.0","lza0kbojh4","NaN","<div style=""width:500px;"">
                                <p style=""font-size:50px; font-weight:bold;""
                                ></p>
                                <div style=""width:240px; margin: auto;"">
                                    <img src=""images/D85.png"" style= ""width:200px""alt=""img"">
                                </div>
                            </div>","147","","0","images/D85.png","","",""
"","","","","","html-slider-response","23","114943","0.0-19.0","lza0kbojh4","NaN","<div style=""width:500px;"">
                                <p style=""font-size:50px; font-weight:bold;""
                                ></p>
                                <div style=""width:240px; margin: auto;"">
                                    <img src=""images/D104.png"" style= ""width:200px""alt=""img"">
                                </div>
                            </div>","-18","","0","images/D104.png","","",""
"","","","","","html-slider-response","24","119188","0.0-20.0","lza0kbojh4","NaN","<div style=""width:500px;"">
                                <p style=""font-size:50px; font-weight:bold;""
                                ></p>
                                <div style=""width:240px; margin: auto;"">
                                    <img src=""images/D92.png"" style= ""width:200px""alt=""img"">
                                </div>
                            </div>","-17","","0","images/D92.png","","",""
"","","","","","html-slider-response","25","121789","0.0-21.0","lza0kbojh4","NaN","<div style=""width:500px;"">
                                <p style=""font-size:50px; font-weight:bold;""
                                ></p>
                                <div style=""width:240px; margin: auto;"">
                                    <img src=""images/D87.png"" style= ""width:200px""alt=""img"">
                                </div>
                            </div>","-59","","0","images/D87.png","","",""
"","","","","","html-slider-response","26","123888","0.0-22.0","lza0kbojh4","NaN","<div style=""width:500px;"">
                                <p style=""font-size:50px; font-weight:bold;""
                                ></p>
                                <div style=""width:240px; margin: auto;"">
                                    <img src=""images/D19.png"" style= ""width:200px""alt=""img"">
                                </div>
                            </div>","-21","","0","images/D19.png","","",""
"","","","","","html-slider-response","27","125496","0.0-23.0","lza0kbojh4","NaN","<div style=""width:500px;"">
                                <p style=""font-size:50px; font-weight:bold;""
                                ></p>
                                <div style=""width:240px; margin: auto;"">
                                    <img src=""images/D31.png"" style= ""width:200px""alt=""img"">
                                </div>
                            </div>","-36","","0","images/D31.png","","",""
"","","","","","html-slider-response","28","127235","0.0-24.0","lza0kbojh4","NaN","<div style=""width:500px;"">
                                <p style=""font-size:50px; font-weight:bold;""
                                ></p>
                                <div style=""width:240px; margin: auto;"">
                                    <img src=""images/D54.png"" style= ""width:200px""alt=""img"">
                                </div>
                            </div>","-54","","0","images/D54.png","","",""
"","","","","","html-slider-response","29","128648","0.0-25.0","lza0kbojh4","NaN","<div style=""width:500px;"">
                                <p style=""font-size:50px; font-weight:bold;""
                                ></p>
                                <div style=""width:240px; margin: auto;"">
                                    <img src=""images/D27.png"" style= ""width:200px""alt=""img"">
                                </div>
                            </div>","-20","","0","images/D27.png","","",""
"","","","","","html-slider-response","30","130168","0.0-26.0","lza0kbojh4","NaN","<div style=""width:500px;"">
                                <p style=""font-size:50px; font-weight:bold;""
                                ></p>
                                <div style=""width:240px; margin: auto;"">
                                    <img src=""images/D93.png"" style= ""width:200px""alt=""img"">
                                </div>
                            </div>","-55","","0","images/D93.png","","",""
"","","","","","html-slider-response","31","132423","0.0-27.0","lza0kbojh4","NaN","<div style=""width:500px;"">
                                <p style=""font-size:50px; font-weight:bold;""
                                ></p>
                                <div style=""width:240px; margin: auto;"">
                                    <img src=""images/D69.png"" style= ""width:200px""alt=""img"">
                                </div>
                            </div>","-20","","0","images/D69.png","","",""
"","","","","","html-slider-response","32","134395","0.0-28.0","lza0kbojh4","NaN","<div style=""width:500px;"">
                                <p style=""font-size:50px; font-weight:bold;""
                                ></p>
                                <div style=""width:240px; margin: auto;"">
                                    <img src=""images/D82.png"" style= ""width:200px""alt=""img"">
                                </div>
                            </div>","28","","0","images/D82.png","","",""
"","","","","","html-slider-response","33","136272","0.0-29.0","lza0kbojh4","NaN","<div style=""width:500px;"">
                                <p style=""font-size:50px; font-weight:bold;""
                                ></p>
                                <div style=""width:240px; margin: auto;"">
                                    <img src=""images/D35.png"" style= ""width:200px""alt=""img"">
                                </div>
                            </div>","10","","0","images/D35.png","","",""
"","","","","","html-slider-response","34","138010","0.0-30.0","lza0kbojh4","NaN","<div style=""width:500px;"">
                                <p style=""font-size:50px; font-weight:bold;""
                                ></p>
                                <div style=""width:240px; margin: auto;"">
                                    <img src=""images/D56.png"" style= ""width:200px""alt=""img"">
                                </div>
                            </div>","60","","0","images/D56.png","","",""
"","","","","","html-slider-response","35","139846","0.0-31.0","lza0kbojh4","NaN","<div style=""width:500px;"">
                                <p style=""font-size:50px; font-weight:bold;""
                                ></p>
                                <div style=""width:240px; margin: auto;"">
                                    <img src=""images/D2.png"" style= ""width:200px""alt=""img"">
                                </div>
                            </div>","-37","","0","images/D2.png","","",""
"","","","","","html-slider-response","36","142259","0.0-32.0","lza0kbojh4","NaN","<div style=""width:500px;"">
                                <p style=""font-size:50px; font-weight:bold;""
                                ></p>
                                <div style=""width:240px; margin: auto;"">
                                    <img src=""images/D76.png"" style= ""width:200px""alt=""img"">
                                </div>
                            </div>","-4","","0","images/D76.png","","",""
"","","","","","html-slider-response","37","144388","0.0-33.0","lza0kbojh4","NaN","<div style=""width:500px;"">
                                <p style=""font-size:50px; font-weight:bold;""
                                ></p>
                                <div style=""width:240px; margin: auto;"">
                                    <img src=""images/D55.png"" style= ""width:200px""alt=""img"">
                                </div>
                            </div>","1","","0","images/D55.png","","",""
"","","","","","html-slider-response","38","145888","0.0-34.0","lza0kbojh4","NaN","<div style=""width:500px;"">
                                <p style=""font-size:50px; font-weight:bold;""
                                ></p>
                                <div style=""width:240px; margin: auto;"">
                                    <img src=""images/D99.png"" style= ""width:200px""alt=""img"">
                                </div>
                            </div>","-48","","0","images/D99.png","","",""
"","","","","","html-slider-response","39","147454","0.0-35.0","lza0kbojh4","NaN","<div style=""width:500px;"">
                                <p style=""font-size:50px; font-weight:bold;""
                                ></p>
                                <div style=""width:240px; margin: auto;"">
                                    <img src=""images/D28.png"" style= ""width:200px""alt=""img"">
                                </div>
                            </div>","-84","","0","images/D28.png","","",""
"","","","","","html-slider-response","40","149016","0.0-36.0","lza0kbojh4","NaN","<div style=""width:500px;"">
                                <p style=""font-size:50px; font-weight:bold;""
                                ></p>
                                <div style=""width:240px; margin: auto;"">
                                    <img src=""images/D52.png"" style= ""width:200px""alt=""img"">
                                </div>
                            </div>","117","","0","images/D52.png","","",""
"","","","","","html-slider-response","41","151009","0.0-37.0","lza0kbojh4","NaN","<div style=""width:500px;"">
                                <p style=""font-size:50px; font-weight:bold;""
                                ></p>
                                <div style=""width:240px; margin: auto;"">
                                    <img src=""images/D4.png"" style= ""width:200px""alt=""img"">
                                </div>
                            </div>","3","","0","images/D4.png","","",""
"","","","","","html-slider-response","42","155934","0.0-38.0","lza0kbojh4","NaN","<div style=""width:500px;"">
                                <p style=""font-size:50px; font-weight:bold;""
                                ></p>
                                <div style=""width:240px; margin: auto;"">
                                    <img src=""images/D102.png"" style= ""width:200px""alt=""img"">
                                </div>
                            </div>","163","","0","images/D102.png","","",""
"","","","","","html-slider-response","43","158961","0.0-39.0","lza0kbojh4","NaN","<div style=""width:500px;"">
                                <p style=""font-size:50px; font-weight:bold;""
                                ></p>
                                <div style=""width:240px; margin: auto;"">
                                    <img src=""images/D81.png"" style= ""width:200px""alt=""img"">
                                </div>
                            </div>","-133","","0","images/D81.png","","",""
"","","","","","html-slider-response","44","162024","0.0-40.0","lza0kbojh4","NaN","<div style=""width:500px;"">
                                <p style=""font-size:50px; font-weight:bold;""
                                ></p>
                                <div style=""width:240px; margin: auto;"">
                                    <img src=""images/D24.png"" style= ""width:200px""alt=""img"">
                                </div>
                            </div>","-23","","0","images/D24.png","","",""
"","","","","","html-slider-response","45","165169","0.0-41.0","lza0kbojh4","NaN","<div style=""width:500px;"">
                                <p style=""font-size:50px; font-weight:bold;""
                                ></p>
                                <div style=""width:240px; margin: auto;"">
                                    <img src=""images/D108.png"" style= ""width:200px""alt=""img"">
                                </div>
                            </div>","-46","","0","images/D108.png","","",""
"","","","","","html-slider-response","46","167793","0.0-42.0","lza0kbojh4","NaN","<div style=""width:500px;"">
                                <p style=""font-size:50px; font-weight:bold;""
                                ></p>
                                <div style=""width:240px; margin: auto;"">
                                    <img src=""images/D36.png"" style= ""width:200px""alt=""img"">
                                </div>
                            </div>","-13","","0","images/D36.png","","",""
"","","","","","html-slider-response","47","169399","0.0-43.0","lza0kbojh4","NaN","<div style=""width:500px;"">
                                <p style=""font-size:50px; font-weight:bold;""
                                ></p>
                                <div style=""width:240px; margin: auto;"">
                                    <img src=""images/D32.png"" style= ""width:200px""alt=""img"">
                                </div>
                            </div>","-36","","0","images/D32.png","","",""
"","","","","","html-slider-response","48","173631","0.0-44.0","lza0kbojh4","NaN","<div style=""width:500px;"">
                                <p style=""font-size:50px; font-weight:bold;""
                                ></p>
                                <div style=""width:240px; margin: auto;"">
                                    <img src=""images/D5.png"" style= ""width:200px""alt=""img"">
                                </div>
                            </div>","-20","","0","images/D5.png","","",""
"","","","","","html-slider-response","49","175416","0.0-45.0","lza0kbojh4","NaN","<div style=""width:500px;"">
                                <p style=""font-size:50px; font-weight:bold;""
                                ></p>
                                <div style=""width:240px; margin: auto;"">
                                    <img src=""images/D77.png"" style= ""width:200px""alt=""img"">
                                </div>
                            </div>","15","","0","images/D77.png","","",""
"","","","","","html-slider-response","50","177198","0.0-46.0","lza0kbojh4","NaN","<div style=""width:500px;"">
                                <p style=""font-size:50px; font-weight:bold;""
                                ></p>
                                <div style=""width:240px; margin: auto;"">
                                    <img src=""images/D89.png"" style= ""width:200px""alt=""img"">
                                </div>
                            </div>","-48","","0","images/D89.png","","",""
"","","","","","html-slider-response","51","178709","0.0-47.0","lza0kbojh4","NaN","<div style=""width:500px;"">
                                <p style=""font-size:50px; font-weight:bold;""
                                ></p>
                                <div style=""width:240px; margin: auto;"">
                                    <img src=""images/D90.png"" style= ""width:200px""alt=""img"">
                                </div>
                            </div>","-19","","0","images/D90.png","","",""
"","","","","","html-slider-response","52","180853","0.0-48.0","lza0kbojh4","NaN","<div style=""width:500px;"">
                                <p style=""font-size:50px; font-weight:bold;""
                                ></p>
                                <div style=""width:240px; margin: auto;"">
                                    <img src=""images/D8.png"" style= ""width:200px""alt=""img"">
                                </div>
                            </div>","15","","0","images/D8.png","","",""
"","","","","","html-slider-response","53","182495","0.0-49.0","lza0kbojh4","NaN","<div style=""width:500px;"">
                                <p style=""font-size:50px; font-weight:bold;""
                                ></p>
                                <div style=""width:240px; margin: auto;"">
                                    <img src=""images/D74.png"" style= ""width:200px""alt=""img"">
                                </div>
                            </div>","-10","","0","images/D74.png","","",""
"","","","","","html-slider-response","54","184668","0.0-50.0","lza0kbojh4","NaN","<div style=""width:500px;"">
                                <p style=""font-size:50px; font-weight:bold;""
                                ></p>
                                <div style=""width:240px; margin: auto;"">
                                    <img src=""images/D80.png"" style= ""width:200px""alt=""img"">
                                </div>
                            </div>","-15","","0","images/D80.png","","",""
"","","","","","html-slider-response","55","186242","0.0-51.0","lza0kbojh4","NaN","<div style=""width:500px;"">
                                <p style=""font-size:50px; font-weight:bold;""
                                ></p>
                                <div style=""width:240px; margin: auto;"">
                                    <img src=""images/D100.png"" style= ""width:200px""alt=""img"">
                                </div>
                            </div>","-10","","0","images/D100.png","","",""
"","","","","","html-slider-response","56","187770","0.0-52.0","lza0kbojh4","NaN","<div style=""width:500px;"">
                                <p style=""font-size:50px; font-weight:bold;""
                                ></p>
                                <div style=""width:240px; margin: auto;"">
                                    <img src=""images/D15.png"" style= ""width:200px""alt=""img"">
                                </div>
                            </div>","-19","","0","images/D15.png","","",""
"","","","","","html-slider-response","57","189061","0.0-53.0","lza0kbojh4","NaN","<div style=""width:500px;"">
                                <p style=""font-size:50px; font-weight:bold;""
                                ></p>
                                <div style=""width:240px; margin: auto;"">
                                    <img src=""images/D107.png"" style= ""width:200px""alt=""img"">
                                </div>
                            </div>","-29","","0","images/D107.png","","",""
"","","","","","html-slider-response","58","190587","0.0-54.0","lza0kbojh4","NaN","<div style=""width:500px;"">
                                <p style=""font-size:50px; font-weight:bold;""
                                ></p>
                                <div style=""width:240px; margin: auto;"">
                                    <img src=""images/D17.png"" style= ""width:200px""alt=""img"">
                                </div>
                            </div>","20","","0","images/D17.png","","",""
"","","","","","html-slider-response","59","192151","0.0-55.0","lza0kbojh4","NaN","<div style=""width:500px;"">
                                <p style=""font-size:50px; font-weight:bold;""
                                ></p>
                                <div style=""width:240px; margin: auto;"">
                                    <img src=""images/D23.png"" style= ""width:200px""alt=""img"">
                                </div>
                            </div>","-16","","0","images/D23.png","","",""
"","","","","","html-slider-response","60","193843","0.0-56.0","lza0kbojh4","NaN","<div style=""width:500px;"">
                                <p style=""font-size:50px; font-weight:bold;""
                                ></p>
                                <div style=""width:240px; margin: auto;"">
                                    <img src=""images/D78.png"" style= ""width:200px""alt=""img"">
                                </div>
                            </div>","15","","0","images/D78.png","","",""
"","","","","","html-slider-response","61","223127","0.0-57.0","lza0kbojh4","NaN","<div style=""width:500px;"">
                                <p style=""font-size:50px; font-weight:bold;""
                                ></p>
                                <div style=""width:240px; margin: auto;"">
                                    <img src=""images/D112.png"" style= ""width:200px""alt=""img"">
                                </div>
                            </div>","-23","","0","images/D112.png","","",""
"","","","","","html-slider-response","62","224523","0.0-58.0","lza0kbojh4","NaN","<div style=""width:500px;"">
                                <p style=""font-size:50px; font-weight:bold;""
                                ></p>
                                <div style=""width:240px; margin: auto;"">
                                    <img src=""images/D59.png"" style= ""width:200px""alt=""img"">
                                </div>
                            </div>","-23","","0","images/D59.png","","",""
"","","","","","html-slider-response","63","226473","0.0-59.0","lza0kbojh4","NaN","<div style=""width:500px;"">
                                <p style=""font-size:50px; font-weight:bold;""
                                ></p>
                                <div style=""width:240px; margin: auto;"">
                                    <img src=""images/D29.png"" style= ""width:200px""alt=""img"">
                                </div>
                            </div>","-8","","0","images/D29.png","","",""
"","","","","","html-slider-response","64","227687","0.0-60.0","lza0kbojh4","NaN","<div style=""width:500px;"">
                                <p style=""font-size:50px; font-weight:bold;""
                                ></p>
                                <div style=""width:240px; margin: auto;"">
                                    <img src=""images/D12.png"" style= ""width:200px""alt=""img"">
                                </div>
                            </div>","-10","","0","images/D12.png","","",""
"","","","","","html-slider-response","65","229625","0.0-61.0","lza0kbojh4","NaN","<div style=""width:500px;"">
                                <p style=""font-size:50px; font-weight:bold;""
                                ></p>
                                <div style=""width:240px; margin: auto;"">
                                    <img src=""images/D40.png"" style= ""width:200px""alt=""img"">
                                </div>
                            </div>","-67","","0","images/D40.png","","",""
"","","","","","html-slider-response","66","235714","0.0-62.0","lza0kbojh4","NaN","<div style=""width:500px;"">
                                <p style=""font-size:50px; font-weight:bold;""
                                ></p>
                                <div style=""width:240px; margin: auto;"">
                                    <img src=""images/D26.png"" style= ""width:200px""alt=""img"">
                                </div>
                            </div>","40","","0","images/D26.png","","",""
"","","","","","html-slider-response","67","238144","0.0-63.0","lza0kbojh4","NaN","<div style=""width:500px;"">
                                <p style=""font-size:50px; font-weight:bold;""
                                ></p>
                                <div style=""width:240px; margin: auto;"">
                                    <img src=""images/D106.png"" style= ""width:200px""alt=""img"">
                                </div>
                            </div>","6","","0","images/D106.png","","",""
"","","","","","html-slider-response","68","239735","0.0-64.0","lza0kbojh4","NaN","<div style=""width:500px;"">
                                <p style=""font-size:50px; font-weight:bold;""
                                ></p>
                                <div style=""width:240px; margin: auto;"">
                                    <img src=""images/D109.png"" style= ""width:200px""alt=""img"">
                                </div>
                            </div>","-45","","0","images/D109.png","","",""
"","","","","","html-slider-response","69","241552","0.0-65.0","lza0kbojh4","NaN","<div style=""width:500px;"">
                                <p style=""font-size:50px; font-weight:bold;""
                                ></p>
                                <div style=""width:240px; margin: auto;"">
                                    <img src=""images/D79.png"" style= ""width:200px""alt=""img"">
                                </div>
                            </div>","-10","","0","images/D79.png","","",""
"","","","","","html-slider-response","70","243683","0.0-66.0","lza0kbojh4","NaN","<div style=""width:500px;"">
                                <p style=""font-size:50px; font-weight:bold;""
                                ></p>
                                <div style=""width:240px; margin: auto;"">
                                    <img src=""images/D57.png"" style= ""width:200px""alt=""img"">
                                </div>
                            </div>","12","","0","images/D57.png","","",""
"","","","","","html-slider-response","71","246584","0.0-67.0","lza0kbojh4","NaN","<div style=""width:500px;"">
                                <p style=""font-size:50px; font-weight:bold;""
                                ></p>
                                <div style=""width:240px; margin: auto;"">
                                    <img src=""images/D95.png"" style= ""width:200px""alt=""img"">
                                </div>
                            </div>","87","","0","images/D95.png","","",""
"","","","","","html-slider-response","72","248516","0.0-68.0","lza0kbojh4","NaN","<div style=""width:500px;"">
                                <p style=""font-size:50px; font-weight:bold;""
                                ></p>
                                <div style=""width:240px; margin: auto;"">
                                    <img src=""images/D47.png"" style= ""width:200px""alt=""img"">
                                </div>
                            </div>","35","","0","images/D47.png","","",""
"","","","","","html-slider-response","73","250319","0.0-69.0","lza0kbojh4","NaN","<div style=""width:500px;"">
                                <p style=""font-size:50px; font-weight:bold;""
                                ></p>
                                <div style=""width:240px; margin: auto;"">
                                    <img src=""images/D72.png"" style= ""width:200px""alt=""img"">
                                </div>
                            </div>","-24","","0","images/D72.png","","",""
"","","","","","html-button-response","74","252885","0.0-70.0","lza0kbojh4","2057","You have completed 25% of the trials. Please click 'Continue' when you are ready proceed.","0","","","","","",""
"","","","","","html-slider-response","75","254700","0.0-71.0","lza0kbojh4","NaN","<div style=""width:500px;"">
                                <p style=""font-size:50px; font-weight:bold;""
                                ></p>
                                <div style=""width:240px; margin: auto;"">
                                    <img src=""images/D101.png"" style= ""width:200px""alt=""img"">
                                </div>
                            </div>","107","","0","images/D101.png","","",""
"","","","","","html-slider-response","76","256703","0.0-72.0","lza0kbojh4","NaN","<div style=""width:500px;"">
                                <p style=""font-size:50px; font-weight:bold;""
                                ></p>
                                <div style=""width:240px; margin: auto;"">
                                    <img src=""images/D41.png"" style= ""width:200px""alt=""img"">
                                </div>
                            </div>","-62","","0","images/D41.png","","",""
"","","","","","html-slider-response","77","258341","0.0-73.0","lza0kbojh4","NaN","<div style=""width:500px;"">
                                <p style=""font-size:50px; font-weight:bold;""
                                ></p>
                                <div style=""width:240px; margin: auto;"">
                                    <img src=""images/D91.png"" style= ""width:200px""alt=""img"">
                                </div>
                            </div>","-20","","0","images/D91.png","","",""
"","","","","","html-slider-response","78","260390","0.0-74.0","lza0kbojh4","NaN","<div style=""width:500px;"">
                                <p style=""font-size:50px; font-weight:bold;""
                                ></p>
                                <div style=""width:240px; margin: auto;"">
                                    <img src=""images/D50.png"" style= ""width:200px""alt=""img"">
                                </div>
                            </div>","-17","","0","images/D50.png","","",""
"","","","","","html-slider-response","79","262271","0.0-75.0","lza0kbojh4","NaN","<div style=""width:500px;"">
                                <p style=""font-size:50px; font-weight:bold;""
                                ></p>
                                <div style=""width:240px; margin: auto;"">
                                    <img src=""images/D21.png"" style= ""width:200px""alt=""img"">
                                </div>
                            </div>","40","","0","images/D21.png","","",""
"","","","","","html-slider-response","80","263967","0.0-76.0","lza0kbojh4","NaN","<div style=""width:500px;"">
                                <p style=""font-size:50px; font-weight:bold;""
                                ></p>
                                <div style=""width:240px; margin: auto;"">
                                    <img src=""images/D73.png"" style= ""width:200px""alt=""img"">
                                </div>
                            </div>","-19","","0","images/D73.png","","",""
"","","","","","html-slider-response","81","265832","0.0-77.0","lza0kbojh4","NaN","<div style=""width:500px;"">
                                <p style=""font-size:50px; font-weight:bold;""
                                ></p>
                                <div style=""width:240px; margin: auto;"">
                                    <img src=""images/D53.png"" style= ""width:200px""alt=""img"">
                                </div>
                            </div>","67","","0","images/D53.png","","",""
"","","","","","html-slider-response","82","267423","0.0-78.0","lza0kbojh4","NaN","<div style=""width:500px;"">
                                <p style=""font-size:50px; font-weight:bold;""
                                ></p>
                                <div style=""width:240px; margin: auto;"">
                                    <img src=""images/D34.png"" style= ""width:200px""alt=""img"">
                                </div>
                            </div>","31","","0","images/D34.png","","",""
"","","","","","html-slider-response","83","282792","0.0-79.0","lza0kbojh4","NaN","<div style=""width:500px;"">
                                <p style=""font-size:50px; font-weight:bold;""
                                ></p>
                                <div style=""width:240px; margin: auto;"">
                                    <img src=""images/D96.png"" style= ""width:200px""alt=""img"">
                                </div>
                            </div>","12","","0","images/D96.png","","",""
"","","","","","html-slider-response","84","284962","0.0-80.0","lza0kbojh4","NaN","<div style=""width:500px;"">
                                <p style=""font-size:50px; font-weight:bold;""
                                ></p>
                                <div style=""width:240px; margin: auto;"">
                                    <img src=""images/D39.png"" style= ""width:200px""alt=""img"">
                                </div>
                            </div>","-71","","0","images/D39.png","","",""
"","","","","","html-slider-response","85","287020","0.0-81.0","lza0kbojh4","NaN","<div style=""width:500px;"">
                                <p style=""font-size:50px; font-weight:bold;""
                                ></p>
                                <div style=""width:240px; margin: auto;"">
                                    <img src=""images/D103.png"" style= ""width:200px""alt=""img"">
                                </div>
                            </div>","-29","","0","images/D103.png","","",""
"","","","","","html-slider-response","86","290299","0.0-82.0","lza0kbojh4","NaN","<div style=""width:500px;"">
                                <p style=""font-size:50px; font-weight:bold;""
                                ></p>
                                <div style=""width:240px; margin: auto;"">
                                    <img src=""images/D3.png"" style= ""width:200px""alt=""img"">
                                </div>
                            </div>","-29","","0","images/D3.png","","",""
"","","","","","html-slider-response","87","292013","0.0-83.0","lza0kbojh4","NaN","<div style=""width:500px;"">
                                <p style=""font-size:50px; font-weight:bold;""
                                ></p>
                                <div style=""width:240px; margin: auto;"">
                                    <img src=""images/D105.png"" style= ""width:200px""alt=""img"">
                                </div>
                            </div>","13","","0","images/D105.png","","",""
"","","","","","html-slider-response","88","294430","0.0-84.0","lza0kbojh4","NaN","<div style=""width:500px;"">
                                <p style=""font-size:50px; font-weight:bold;""
                                ></p>
                                <div style=""width:240px; margin: auto;"">
                                    <img src=""images/D66.png"" style= ""width:200px""alt=""img"">
                                </div>
                            </div>","15","","0","images/D66.png","","",""
"","","","","","html-slider-response","89","295558","0.0-85.0","lza0kbojh4","NaN","<div style=""width:500px;"">
                                <p style=""font-size:50px; font-weight:bold;""
                                ></p>
                                <div style=""width:240px; margin: auto;"">
                                    <img src=""images/D44.png"" style= ""width:200px""alt=""img"">
                                </div>
                            </div>","0","","0","images/D44.png","","",""
"","","","","","html-slider-response","90","297434","0.0-86.0","lza0kbojh4","NaN","<div style=""width:500px;"">
                                <p style=""font-size:50px; font-weight:bold;""
                                ></p>
                                <div style=""width:240px; margin: auto;"">
                                    <img src=""images/D45.png"" style= ""width:200px""alt=""img"">
                                </div>
                            </div>","-23","","0","images/D45.png","","",""
"","","","","","html-slider-response","91","299077","0.0-87.0","lza0kbojh4","NaN","<div style=""width:500px;"">
                                <p style=""font-size:50px; font-weight:bold;""
                                ></p>
                                <div style=""width:240px; margin: auto;"">
                                    <img src=""images/D88.png"" style= ""width:200px""alt=""img"">
                                </div>
                            </div>","-33","","0","images/D88.png","","",""
"","","","","","html-slider-response","92","301591","0.0-88.0","lza0kbojh4","NaN","<div style=""width:500px;"">
                                <p style=""font-size:50px; font-weight:bold;""
                                ></p>
                                <div style=""width:240px; margin: auto;"">
                                    <img src=""images/D30.png"" style= ""width:200px""alt=""img"">
                                </div>
                            </div>","-45","","0","images/D30.png","","",""
"","","","","","html-slider-response","93","303297","0.0-89.0","lza0kbojh4","NaN","<div style=""width:500px;"">
                                <p style=""font-size:50px; font-weight:bold;""
                                ></p>
                                <div style=""width:240px; margin: auto;"">
                                    <img src=""images/D111.png"" style= ""width:200px""alt=""img"">
                                </div>
                            </div>","-24","","0","images/D111.png","","",""
"","","","","","html-slider-response","94","305281","0.0-90.0","lza0kbojh4","NaN","<div style=""width:500px;"">
                                <p style=""font-size:50px; font-weight:bold;""
                                ></p>
                                <div style=""width:240px; margin: auto;"">
                                    <img src=""images/D51.png"" style= ""width:200px""alt=""img"">
                                </div>
                            </div>","-9","","0","images/D51.png","","",""
"","","","","","html-slider-response","95","308698","0.0-91.0","lza0kbojh4","NaN","<div style=""width:500px;"">
                                <p style=""font-size:50px; font-weight:bold;""
                                ></p>
                                <div style=""width:240px; margin: auto;"">
                                    <img src=""images/D64.png"" style= ""width:200px""alt=""img"">
                                </div>
                            </div>","16","","0","images/D64.png","","",""
"","","","","","html-slider-response","96","313654","0.0-92.0","lza0kbojh4","NaN","<div style=""width:500px;"">
                                <p style=""font-size:50px; font-weight:bold;""
                                ></p>
                                <div style=""width:240px; margin: auto;"">
                                    <img src=""images/D84.png"" style= ""width:200px""alt=""img"">
                                </div>
                            </div>","7","","0","images/D84.png","","",""
"","","","","","html-slider-response","97","315615","0.0-93.0","lza0kbojh4","NaN","<div style=""width:500px;"">
                                <p style=""font-size:50px; font-weight:bold;""
                                ></p>
                                <div style=""width:240px; margin: auto;"">
                                    <img src=""images/D43.png"" style= ""width:200px""alt=""img"">
                                </div>
                            </div>","-36","","0","images/D43.png","","",""
"","","","","","html-slider-response","98","317583","0.0-94.0","lza0kbojh4","NaN","<div style=""width:500px;"">
                                <p style=""font-size:50px; font-weight:bold;""
                                ></p>
                                <div style=""width:240px; margin: auto;"">
                                    <img src=""images/D61.png"" style= ""width:200px""alt=""img"">
                                </div>
                            </div>","-40","","0","images/D61.png","","",""
"","","","","","html-slider-response","99","319638","0.0-95.0","lza0kbojh4","NaN","<div style=""width:500px;"">
                                <p style=""font-size:50px; font-weight:bold;""
                                ></p>
                                <div style=""width:240px; margin: auto;"">
                                    <img src=""images/D67.png"" style= ""width:200px""alt=""img"">
                                </div>
                            </div>","-36","","0","images/D67.png","","",""
"","","","","","html-slider-response","100","321661","0.0-96.0","lza0kbojh4","NaN","<div style=""width:500px;"">
                                <p style=""font-size:50px; font-weight:bold;""
                                ></p>
                                <div style=""width:240px; margin: auto;"">
                                    <img src=""images/D7.png"" style= ""width:200px""alt=""img"">
                                </div>
                            </div>","-21","","0","images/D7.png","","",""
"","","","","","html-slider-response","101","324299","0.0-97.0","lza0kbojh4","NaN","<div style=""width:500px;"">
                                <p style=""font-size:50px; font-weight:bold;""
                                ></p>
                                <div style=""width:240px; margin: auto;"">
                                    <img src=""images/D25.png"" style= ""width:200px""alt=""img"">
                                </div>
                            </div>","10","","0","images/D25.png","","",""
"","","","","","html-slider-response","102","327690","0.0-98.0","lza0kbojh4","NaN","<div style=""width:500px;"">
                                <p style=""font-size:50px; font-weight:bold;""
                                ></p>
                                <div style=""width:240px; margin: auto;"">
                                    <img src=""images/D42.png"" style= ""width:200px""alt=""img"">
                                </div>
                            </div>","-37","","0","images/D42.png","","",""
"","","","","","html-slider-response","103","329919","0.0-99.0","lza0kbojh4","NaN","<div style=""width:500px;"">
                                <p style=""font-size:50px; font-weight:bold;""
                                ></p>
                                <div style=""width:240px; margin: auto;"">
                                    <img src=""images/D97.png"" style= ""width:200px""alt=""img"">
                                </div>
                            </div>","-23","","0","images/D97.png","","",""
"","","","","","html-slider-response","104","331817","0.0-100.0","lza0kbojh4","NaN","<div style=""width:500px;"">
                                <p style=""font-size:50px; font-weight:bold;""
                                ></p>
                                <div style=""width:240px; margin: auto;"">
                                    <img src=""images/D38.png"" style= ""width:200px""alt=""img"">
                                </div>
                            </div>","-13","","0","images/D38.png","","",""
"","","","","","html-slider-response","105","334557","0.0-101.0","lza0kbojh4","NaN","<div style=""width:500px;"">
                                <p style=""font-size:50px; font-weight:bold;""
                                ></p>
                                <div style=""width:240px; margin: auto;"">
                                    <img src=""images/D46.png"" style= ""width:200px""alt=""img"">
                                </div>
                            </div>","15","","0","images/D46.png","","",""
"","","","","","html-slider-response","106","337936","0.0-102.0","lza0kbojh4","NaN","<div style=""width:500px;"">
                                <p style=""font-size:50px; font-weight:bold;""
                                ></p>
                                <div style=""width:240px; margin: auto;"">
                                    <img src=""images/D70.png"" style= ""width:200px""alt=""img"">
                                </div>
                            </div>","-20","","0","images/D70.png","","",""
"","","","","","html-slider-response","107","340593","0.0-103.0","lza0kbojh4","NaN","<div style=""width:500px;"">
                                <p style=""font-size:50px; font-weight:bold;""
                                ></p>
                                <div style=""width:240px; margin: auto;"">
                                    <img src=""images/D22.png"" style= ""width:200px""alt=""img"">
                                </div>
                            </div>","14","","0","images/D22.png","","",""
"","","","","","html-slider-response","108","343945","0.0-104.0","lza0kbojh4","NaN","<div style=""width:500px;"">
                                <p style=""font-size:50px; font-weight:bold;""
                                ></p>
                                <div style=""width:240px; margin: auto;"">
                                    <img src=""images/D9.png"" style= ""width:200px""alt=""img"">
                                </div>
                            </div>","-29","","0","images/D9.png","","",""
"","","","","","html-slider-response","109","359129","0.0-105.0","lza0kbojh4","NaN","<div style=""width:500px;"">
                                <p style=""font-size:50px; font-weight:bold;""
                                ></p>
                                <div style=""width:240px; margin: auto;"">
                                    <img src=""images/D94.png"" style= ""width:200px""alt=""img"">
                                </div>
                            </div>","19","","0","images/D94.png","","",""
"","","","","","html-slider-response","110","361617","0.0-106.0","lza0kbojh4","NaN","<div style=""width:500px;"">
                                <p style=""font-size:50px; font-weight:bold;""
                                ></p>
                                <div style=""width:240px; margin: auto;"">
                                    <img src=""images/D49.png"" style= ""width:200px""alt=""img"">
                                </div>
                            </div>","108","","0","images/D49.png","","",""
"","","","","","html-slider-response","111","363263","0.0-107.0","lza0kbojh4","NaN","<div style=""width:500px;"">
                                <p style=""font-size:50px; font-weight:bold;""
                                ></p>
                                <div style=""width:240px; margin: auto;"">
                                    <img src=""images/D98.png"" style= ""width:200px""alt=""img"">
                                </div>
                            </div>","-29","","0","images/D98.png","","",""
"","","","","","html-slider-response","112","365323","0.0-108.0","lza0kbojh4","NaN","<div style=""width:500px;"">
                                <p style=""font-size:50px; font-weight:bold;""
                                ></p>
                                <div style=""width:240px; margin: auto;"">
                                    <img src=""images/D65.png"" style= ""width:200px""alt=""img"">
                                </div>
                            </div>","19","","0","images/D65.png","","",""
"","","","","","html-slider-response","113","366815","0.0-109.0","lza0kbojh4","NaN","<div style=""width:500px;"">
                                <p style=""font-size:50px; font-weight:bold;""
                                ></p>
                                <div style=""width:240px; margin: auto;"">
                                    <img src=""images/D18.png"" style= ""width:200px""alt=""img"">
                                </div>
                            </div>","-20","","0","images/D18.png","","",""
"","","","","","html-slider-response","114","368277","0.0-110.0","lza0kbojh4","NaN","<div style=""width:500px;"">
                                <p style=""font-size:50px; font-weight:bold;""
                                ></p>
                                <div style=""width:240px; margin: auto;"">
                                    <img src=""images/D60.png"" style= ""width:200px""alt=""img"">
                                </div>
                            </div>","-28","","0","images/D60.png","","",""
"","","","","","html-slider-response","115","370398","0.0-111.0","lza0kbojh4","NaN","<div style=""width:500px;"">
                                <p style=""font-size:50px; font-weight:bold;""
                                ></p>
                                <div style=""width:240px; margin: auto;"">
                                    <img src=""images/D68.png"" style= ""width:200px""alt=""img"">
                                </div>
                            </div>","-29","","0","images/D68.png","","",""
"","","","","","html-slider-response","116","371521","0.0-112.0","lza0kbojh4","NaN","<div style=""width:500px;"">
                                <p style=""font-size:50px; font-weight:bold;""
                                ></p>
                                <div style=""width:240px; margin: auto;"">
                                    <img src=""images/D37.png"" style= ""width:200px""alt=""img"">
                                </div>
                            </div>","-25","","0","images/D37.png","","",""
"","","","","","html-slider-response","117","372622","0.0-113.0","lza0kbojh4","NaN","<div style=""width:500px;"">
                                <p style=""font-size:50px; font-weight:bold;""
                                ></p>
                                <div style=""width:240px; margin: auto;"">
                                    <img src=""images/D10.png"" style= ""width:200px""alt=""img"">
                                </div>
                            </div>","-42","","0","images/D10.png","","",""
"","","","","","html-slider-response","118","374927","0.0-114.0","lza0kbojh4","NaN","<div style=""width:500px;"">
                                <p style=""font-size:50px; font-weight:bold;""
                                ></p>
                                <div style=""width:240px; margin: auto;"">
                                    <img src=""images/D16.png"" style= ""width:200px""alt=""img"">
                                </div>
                            </div>","84","","0","images/D16.png","","",""
"","","","","","html-slider-response","119","376996","0.0-115.0","lza0kbojh4","NaN","<div style=""width:500px;"">
                                <p style=""font-size:50px; font-weight:bold;""
                                ></p>
                                <div style=""width:240px; margin: auto;"">
                                    <img src=""images/D83.png"" style= ""width:200px""alt=""img"">
                                </div>
                            </div>","71","","0","images/D83.png","","",""
"","","","","","html-slider-response","120","379049","0.0-116.0","lza0kbojh4","NaN","<div style=""width:500px;"">
                                <p style=""font-size:50px; font-weight:bold;""
                                ></p>
                                <div style=""width:240px; margin: auto;"">
                                    <img src=""images/D110.png"" style= ""width:200px""alt=""img"">
                                </div>
                            </div>","-53","","0","images/D110.png","","",""
"","","","","","html-slider-response","121","380851","0.0-117.0","lza0kbojh4","NaN","<div style=""width:500px;"">
                                <p style=""font-size:50px; font-weight:bold;""
                                ></p>
                                <div style=""width:240px; margin: auto;"">
                                    <img src=""images/D20.png"" style= ""width:200px""alt=""img"">
                                </div>
                            </div>","155","","0","images/D20.png","","",""
"","","","","","html-slider-response","122","382750","0.0-118.0","lza0kbojh4","NaN","<div style=""width:500px;"">
                                <p style=""font-size:50px; font-weight:bold;""
                                ></p>
                                <div style=""width:240px; margin: auto;"">
                                    <img src=""images/D71.png"" style= ""width:200px""alt=""img"">
                                </div>
                            </div>","-69","","0","images/D71.png","","",""
"","","","","","html-slider-response","123","384743","0.0-119.0","lza0kbojh4","NaN","<div style=""width:500px;"">
                                <p style=""font-size:50px; font-weight:bold;""
                                ></p>
                                <div style=""width:240px; margin: auto;"">
                                    <img src=""images/D48.png"" style= ""width:200px""alt=""img"">
                                </div>
                            </div>","23","","0","images/D48.png","","",""
"","","","","","html-slider-response","124","386554","0.0-120.0","lza0kbojh4","NaN","<div style=""width:500px;"">
                                <p style=""font-size:50px; font-weight:bold;""
                                ></p>
                                <div style=""width:240px; margin: auto;"">
                                    <img src=""images/D6.png"" style= ""width:200px""alt=""img"">
                                </div>
                            </div>","98","","0","images/D6.png","","",""
"","","","","","html-slider-response","125","387857","0.0-121.0","lza0kbojh4","NaN","<div style=""width:500px;"">
                                <p style=""font-size:50px; font-weight:bold;""
                                ></p>
                                <div style=""width:240px; margin: auto;"">
                                    <img src=""images/D13.png"" style= ""width:200px""alt=""img"">
                                </div>
                            </div>","-23","","0","images/D13.png","","",""
"","","","","","html-slider-response","126","393225","0.0-122.0","lza0kbojh4","NaN","<div style=""width:500px;"">
                                <p style=""font-size:50px; font-weight:bold;""
                                ></p>
                                <div style=""width:240px; margin: auto;"">
                                    <img src=""images/D33.png"" style= ""width:200px""alt=""img"">
                                </div>
                            </div>","-38","","0","images/D33.png","","",""
"","","","","","html-slider-response","127","395224","0.0-123.0","lza0kbojh4","NaN","<div style=""width:500px;"">
                                <p style=""font-size:50px; font-weight:bold;""
                                ></p>
                                <div style=""width:240px; margin: auto;"">
                                    <img src=""images/D62.png"" style= ""width:200px""alt=""img"">
                                </div>
                            </div>","-45","","0","images/D62.png","","",""
"","","","","","html-slider-response","128","397305","0.0-124.0","lza0kbojh4","NaN","<div style=""width:500px;"">
                                <p style=""font-size:50px; font-weight:bold;""
                                ></p>
                                <div style=""width:240px; margin: auto;"">
                                    <img src=""images/D86.png"" style= ""width:200px""alt=""img"">
                                </div>
                            </div>","-25","","0","images/D86.png","","",""
"","","","","","html-slider-response","129","399354","0.0-125.0","lza0kbojh4","NaN","<div style=""width:500px;"">
                                <p style=""font-size:50px; font-weight:bold;""
                                ></p>
                                <div style=""width:240px; margin: auto;"">
                                    <img src=""images/D1.png"" style= ""width:200px""alt=""img"">
                                </div>
                            </div>","89","","0","images/D1.png","","",""
"","","","","","html-slider-response","130","400952","0.0-126.0","lza0kbojh4","NaN","<div style=""width:500px;"">
                                <p style=""font-size:50px; font-weight:bold;""
                                ></p>
                                <div style=""width:240px; margin: auto;"">
                                    <img src=""images/D58.png"" style= ""width:200px""alt=""img"">
                                </div>
                            </div>","-64","","0","images/D58.png","","",""
"","","","","","html-button-response","131","402237","0.0-127.0","lza0kbojh4","780","You have completed 50% of the trials. Please click 'Continue' when you are ready proceed.","0","","","","","",""
"","","","","","html-slider-response","132","403461","0.0-128.0","lza0kbojh4","NaN","<div style=""width:500px;"">
                                <p style=""font-size:50px; font-weight:bold;""
                                ></p>
                                <div style=""width:240px; margin: auto;"">
                                    <img src=""images/D41.png"" style= ""width:200px""alt=""img"">
                                </div>
                            </div>","-91","","0","images/D41.png","","",""
"","","","","","html-slider-response","133","405988","0.0-129.0","lza0kbojh4","NaN","<div style=""width:500px;"">
                                <p style=""font-size:50px; font-weight:bold;""
                                ></p>
                                <div style=""width:240px; margin: auto;"">
                                    <img src=""images/D53.png"" style= ""width:200px""alt=""img"">
                                </div>
                            </div>","102","","0","images/D53.png","","",""
"","","","","","html-slider-response","134","408093","0.0-130.0","lza0kbojh4","NaN","<div style=""width:500px;"">
                                <p style=""font-size:50px; font-weight:bold;""
                                ></p>
                                <div style=""width:240px; margin: auto;"">
                                    <img src=""images/D80.png"" style= ""width:200px""alt=""img"">
                                </div>
                            </div>","82","","0","images/D80.png","","",""
"","","","","","html-slider-response","135","409461","0.0-131.0","lza0kbojh4","NaN","<div style=""width:500px;"">
                                <p style=""font-size:50px; font-weight:bold;""
                                ></p>
                                <div style=""width:240px; margin: auto;"">
                                    <img src=""images/D108.png"" style= ""width:200px""alt=""img"">
                                </div>
                            </div>","-67","","0","images/D108.png","","",""
"","","","","","html-slider-response","136","411070","0.0-132.0","lza0kbojh4","NaN","<div style=""width:500px;"">
                                <p style=""font-size:50px; font-weight:bold;""
                                ></p>
                                <div style=""width:240px; margin: auto;"">
                                    <img src=""images/D105.png"" style= ""width:200px""alt=""img"">
                                </div>
                            </div>","-28","","0","images/D105.png","","",""
"","","","","","html-slider-response","137","413130","0.0-133.0","lza0kbojh4","NaN","<div style=""width:500px;"">
                                <p style=""font-size:50px; font-weight:bold;""
                                ></p>
                                <div style=""width:240px; margin: auto;"">
                                    <img src=""images/D34.png"" style= ""width:200px""alt=""img"">
                                </div>
                            </div>","90","","0","images/D34.png","","",""
"","","","","","html-slider-response","138","416886","0.0-134.0","lza0kbojh4","NaN","<div style=""width:500px;"">
                                <p style=""font-size:50px; font-weight:bold;""
                                ></p>
                                <div style=""width:240px; margin: auto;"">
                                    <img src=""images/D35.png"" style= ""width:200px""alt=""img"">
                                </div>
                            </div>","26","","0","images/D35.png","","",""
"","","","","","html-slider-response","139","418910","0.0-135.0","lza0kbojh4","NaN","<div style=""width:500px;"">
                                <p style=""font-size:50px; font-weight:bold;""
                                ></p>
                                <div style=""width:240px; margin: auto;"">
                                    <img src=""images/D58.png"" style= ""width:200px""alt=""img"">
                                </div>
                            </div>","-57","","0","images/D58.png","","",""
"","","","","","html-slider-response","140","420700","0.0-136.0","lza0kbojh4","NaN","<div style=""width:500px;"">
                                <p style=""font-size:50px; font-weight:bold;""
                                ></p>
                                <div style=""width:240px; margin: auto;"">
                                    <img src=""images/D6.png"" style= ""width:200px""alt=""img"">
                                </div>
                            </div>","137","","0","images/D6.png","","",""
"","","","","","html-slider-response","141","422063","0.0-137.0","lza0kbojh4","NaN","<div style=""width:500px;"">
                                <p style=""font-size:50px; font-weight:bold;""
                                ></p>
                                <div style=""width:240px; margin: auto;"">
                                    <img src=""images/D10.png"" style= ""width:200px""alt=""img"">
                                </div>
                            </div>","-43","","0","images/D10.png","","",""
"","","","","","html-slider-response","142","424120","0.0-138.0","lza0kbojh4","NaN","<div style=""width:500px;"">
                                <p style=""font-size:50px; font-weight:bold;""
                                ></p>
                                <div style=""width:240px; margin: auto;"">
                                    <img src=""images/D66.png"" style= ""width:200px""alt=""img"">
                                </div>
                            </div>","-21","","0","images/D66.png","","",""
"","","","","","html-slider-response","143","426221","0.0-139.0","lza0kbojh4","NaN","<div style=""width:500px;"">
                                <p style=""font-size:50px; font-weight:bold;""
                                ></p>
                                <div style=""width:240px; margin: auto;"">
                                    <img src=""images/D40.png"" style= ""width:200px""alt=""img"">
                                </div>
                            </div>","-14","","0","images/D40.png","","",""
"","","","","","html-slider-response","144","427979","0.0-140.0","lza0kbojh4","NaN","<div style=""width:500px;"">
                                <p style=""font-size:50px; font-weight:bold;""
                                ></p>
                                <div style=""width:240px; margin: auto;"">
                                    <img src=""images/D48.png"" style= ""width:200px""alt=""img"">
                                </div>
                            </div>","19","","0","images/D48.png","","",""
"","","","","","html-slider-response","145","429568","0.0-141.0","lza0kbojh4","NaN","<div style=""width:500px;"">
                                <p style=""font-size:50px; font-weight:bold;""
                                ></p>
                                <div style=""width:240px; margin: auto;"">
                                    <img src=""images/D75.png"" style= ""width:200px""alt=""img"">
                                </div>
                            </div>","-7","","0","images/D75.png","","",""
"","","","","","html-slider-response","146","431318","0.0-142.0","lza0kbojh4","NaN","<div style=""width:500px;"">
                                <p style=""font-size:50px; font-weight:bold;""
                                ></p>
                                <div style=""width:240px; margin: auto;"">
                                    <img src=""images/D93.png"" style= ""width:200px""alt=""img"">
                                </div>
                            </div>","-101","","0","images/D93.png","","",""
"","","","","","html-slider-response","147","433620","0.0-143.0","lza0kbojh4","NaN","<div style=""width:500px;"">
                                <p style=""font-size:50px; font-weight:bold;""
                                ></p>
                                <div style=""width:240px; margin: auto;"">
                                    <img src=""images/D59.png"" style= ""width:200px""alt=""img"">
                                </div>
                            </div>","-140","","0","images/D59.png","","",""
"","","","","","html-slider-response","148","435439","0.0-144.0","lza0kbojh4","NaN","<div style=""width:500px;"">
                                <p style=""font-size:50px; font-weight:bold;""
                                ></p>
                                <div style=""width:240px; margin: auto;"">
                                    <img src=""images/D63.png"" style= ""width:200px""alt=""img"">
                                </div>
                            </div>","-119","","0","images/D63.png","","",""
"","","","","","html-slider-response","149","437351","0.0-145.0","lza0kbojh4","NaN","<div style=""width:500px;"">
                                <p style=""font-size:50px; font-weight:bold;""
                                ></p>
                                <div style=""width:240px; margin: auto;"">
                                    <img src=""images/D49.png"" style= ""width:200px""alt=""img"">
                                </div>
                            </div>","127","","0","images/D49.png","","",""
"","","","","","html-slider-response","150","438963","0.0-146.0","lza0kbojh4","NaN","<div style=""width:500px;"">
                                <p style=""font-size:50px; font-weight:bold;""
                                ></p>
                                <div style=""width:240px; margin: auto;"">
                                    <img src=""images/D88.png"" style= ""width:200px""alt=""img"">
                                </div>
                            </div>","-39","","0","images/D88.png","","",""
"","","","","","html-slider-response","151","440674","0.0-147.0","lza0kbojh4","NaN","<div style=""width:500px;"">
                                <p style=""font-size:50px; font-weight:bold;""
                                ></p>
                                <div style=""width:240px; margin: auto;"">
                                    <img src=""images/D8.png"" style= ""width:200px""alt=""img"">
                                </div>
                            </div>","51","","0","images/D8.png","","",""
"","","","","","html-slider-response","152","442896","0.0-148.0","lza0kbojh4","NaN","<div style=""width:500px;"">
                                <p style=""font-size:50px; font-weight:bold;""
                                ></p>
                                <div style=""width:240px; margin: auto;"">
                                    <img src=""images/D36.png"" style= ""width:200px""alt=""img"">
                                </div>
                            </div>","7","","0","images/D36.png","","",""
"","","","","","html-slider-response","153","445179","0.0-149.0","lza0kbojh4","NaN","<div style=""width:500px;"">
                                <p style=""font-size:50px; font-weight:bold;""
                                ></p>
                                <div style=""width:240px; margin: auto;"">
                                    <img src=""images/D95.png"" style= ""width:200px""alt=""img"">
                                </div>
                            </div>","9","","0","images/D95.png","","",""
"","","","","","html-slider-response","154","447029","0.0-150.0","lza0kbojh4","NaN","<div style=""width:500px;"">
                                <p style=""font-size:50px; font-weight:bold;""
                                ></p>
                                <div style=""width:240px; margin: auto;"">
                                    <img src=""images/D70.png"" style= ""width:200px""alt=""img"">
                                </div>
                            </div>","-74","","0","images/D70.png","","",""
"","","","","","html-slider-response","155","448712","0.0-151.0","lza0kbojh4","NaN","<div style=""width:500px;"">
                                <p style=""font-size:50px; font-weight:bold;""
                                ></p>
                                <div style=""width:240px; margin: auto;"">
                                    <img src=""images/D60.png"" style= ""width:200px""alt=""img"">
                                </div>
                            </div>","-100","","0","images/D60.png","","",""
"","","","","","html-slider-response","156","451865","0.0-152.0","lza0kbojh4","NaN","<div style=""width:500px;"">
                                <p style=""font-size:50px; font-weight:bold;""
                                ></p>
                                <div style=""width:240px; margin: auto;"">
                                    <img src=""images/D78.png"" style= ""width:200px""alt=""img"">
                                </div>
                            </div>","18","","0","images/D78.png","","",""
"","","","","","html-slider-response","157","453796","0.0-153.0","lza0kbojh4","NaN","<div style=""width:500px;"">
                                <p style=""font-size:50px; font-weight:bold;""
                                ></p>
                                <div style=""width:240px; margin: auto;"">
                                    <img src=""images/D17.png"" style= ""width:200px""alt=""img"">
                                </div>
                            </div>","65","","0","images/D17.png","","",""
"","","","","","html-slider-response","158","455250","0.0-154.0","lza0kbojh4","NaN","<div style=""width:500px;"">
                                <p style=""font-size:50px; font-weight:bold;""
                                ></p>
                                <div style=""width:240px; margin: auto;"">
                                    <img src=""images/D2.png"" style= ""width:200px""alt=""img"">
                                </div>
                            </div>","-57","","0","images/D2.png","","",""
"","","","","","html-slider-response","159","456829","0.0-155.0","lza0kbojh4","NaN","<div style=""width:500px;"">
                                <p style=""font-size:50px; font-weight:bold;""
                                ></p>
                                <div style=""width:240px; margin: auto;"">
                                    <img src=""images/D64.png"" style= ""width:200px""alt=""img"">
                                </div>
                            </div>","45","","0","images/D64.png","","",""
"","","","","","html-slider-response","160","458258","0.0-156.0","lza0kbojh4","NaN","<div style=""width:500px;"">
                                <p style=""font-size:50px; font-weight:bold;""
                                ></p>
                                <div style=""width:240px; margin: auto;"">
                                    <img src=""images/D100.png"" style= ""width:200px""alt=""img"">
                                </div>
                            </div>","-41","","0","images/D100.png","","",""
"","","","","","html-slider-response","161","460352","0.0-157.0","lza0kbojh4","NaN","<div style=""width:500px;"">
                                <p style=""font-size:50px; font-weight:bold;""
                                ></p>
                                <div style=""width:240px; margin: auto;"">
                                    <img src=""images/D99.png"" style= ""width:200px""alt=""img"">
                                </div>
                            </div>","-81","","0","images/D99.png","","",""
"","","","","","html-slider-response","162","462150","0.0-158.0","lza0kbojh4","NaN","<div style=""width:500px;"">
                                <p style=""font-size:50px; font-weight:bold;""
                                ></p>
                                <div style=""width:240px; margin: auto;"">
                                    <img src=""images/D44.png"" style= ""width:200px""alt=""img"">
                                </div>
                            </div>","-135","","0","images/D44.png","","",""
"","","","","","html-slider-response","163","463815","0.0-159.0","lza0kbojh4","NaN","<div style=""width:500px;"">
                                <p style=""font-size:50px; font-weight:bold;""
                                ></p>
                                <div style=""width:240px; margin: auto;"">
                                    <img src=""images/D13.png"" style= ""width:200px""alt=""img"">
                                </div>
                            </div>","-141","","0","images/D13.png","","",""
"","","","","","html-slider-response","164","465687","0.0-160.0","lza0kbojh4","NaN","<div style=""width:500px;"">
                                <p style=""font-size:50px; font-weight:bold;""
                                ></p>
                                <div style=""width:240px; margin: auto;"">
                                    <img src=""images/D32.png"" style= ""width:200px""alt=""img"">
                                </div>
                            </div>","-36","","0","images/D32.png","","",""
"","","","","","html-slider-response","165","467306","0.0-161.0","lza0kbojh4","NaN","<div style=""width:500px;"">
                                <p style=""font-size:50px; font-weight:bold;""
                                ></p>
                                <div style=""width:240px; margin: auto;"">
                                    <img src=""images/D81.png"" style= ""width:200px""alt=""img"">
                                </div>
                            </div>","-20","","0","images/D81.png","","",""
"","","","","","html-slider-response","166","469825","0.0-162.0","lza0kbojh4","NaN","<div style=""width:500px;"">
                                <p style=""font-size:50px; font-weight:bold;""
                                ></p>
                                <div style=""width:240px; margin: auto;"">
                                    <img src=""images/D51.png"" style= ""width:200px""alt=""img"">
                                </div>
                            </div>","-1","","0","images/D51.png","","",""
"","","","","","html-slider-response","167","471671","0.0-163.0","lza0kbojh4","NaN","<div style=""width:500px;"">
                                <p style=""font-size:50px; font-weight:bold;""
                                ></p>
                                <div style=""width:240px; margin: auto;"">
                                    <img src=""images/D86.png"" style= ""width:200px""alt=""img"">
                                </div>
                            </div>","-26","","0","images/D86.png","","",""
"","","","","","html-slider-response","168","473442","0.0-164.0","lza0kbojh4","NaN","<div style=""width:500px;"">
                                <p style=""font-size:50px; font-weight:bold;""
                                ></p>
                                <div style=""width:240px; margin: auto;"">
                                    <img src=""images/D9.png"" style= ""width:200px""alt=""img"">
                                </div>
                            </div>","-71","","0","images/D9.png","","",""
"","","","","","html-slider-response","169","476343","0.0-165.0","lza0kbojh4","NaN","<div style=""width:500px;"">
                                <p style=""font-size:50px; font-weight:bold;""
                                ></p>
                                <div style=""width:240px; margin: auto;"">
                                    <img src=""images/D29.png"" style= ""width:200px""alt=""img"">
                                </div>
                            </div>","-23","","0","images/D29.png","","",""
"","","","","","html-slider-response","170","478656","0.0-166.0","lza0kbojh4","NaN","<div style=""width:500px;"">
                                <p style=""font-size:50px; font-weight:bold;""
                                ></p>
                                <div style=""width:240px; margin: auto;"">
                                    <img src=""images/D22.png"" style= ""width:200px""alt=""img"">
                                </div>
                            </div>","13","","0","images/D22.png","","",""
"","","","","","html-slider-response","171","480442","0.0-167.0","lza0kbojh4","NaN","<div style=""width:500px;"">
                                <p style=""font-size:50px; font-weight:bold;""
                                ></p>
                                <div style=""width:240px; margin: auto;"">
                                    <img src=""images/D106.png"" style= ""width:200px""alt=""img"">
                                </div>
                            </div>","44","","0","images/D106.png","","",""
"","","","","","html-slider-response","172","481931","0.0-168.0","lza0kbojh4","NaN","<div style=""width:500px;"">
                                <p style=""font-size:50px; font-weight:bold;""
                                ></p>
                                <div style=""width:240px; margin: auto;"">
                                    <img src=""images/D28.png"" style= ""width:200px""alt=""img"">
                                </div>
                            </div>","-17","","0","images/D28.png","","",""
"","","","","","html-slider-response","173","483625","0.0-169.0","lza0kbojh4","NaN","<div style=""width:500px;"">
                                <p style=""font-size:50px; font-weight:bold;""
                                ></p>
                                <div style=""width:240px; margin: auto;"">
                                    <img src=""images/D56.png"" style= ""width:200px""alt=""img"">
                                </div>
                            </div>","70","","0","images/D56.png","","",""
"","","","","","html-slider-response","174","485686","0.0-170.0","lza0kbojh4","NaN","<div style=""width:500px;"">
                                <p style=""font-size:50px; font-weight:bold;""
                                ></p>
                                <div style=""width:240px; margin: auto;"">
                                    <img src=""images/D18.png"" style= ""width:200px""alt=""img"">
                                </div>
                            </div>","20","","0","images/D18.png","","",""
"","","","","","html-slider-response","175","487630","0.0-171.0","lza0kbojh4","NaN","<div style=""width:500px;"">
                                <p style=""font-size:50px; font-weight:bold;""
                                ></p>
                                <div style=""width:240px; margin: auto;"">
                                    <img src=""images/D23.png"" style= ""width:200px""alt=""img"">
                                </div>
                            </div>","-33","","0","images/D23.png","","",""
"","","","","","html-slider-response","176","489495","0.0-172.0","lza0kbojh4","NaN","<div style=""width:500px;"">
                                <p style=""font-size:50px; font-weight:bold;""
                                ></p>
                                <div style=""width:240px; margin: auto;"">
                                    <img src=""images/D4.png"" style= ""width:200px""alt=""img"">
                                </div>
                            </div>","6","","0","images/D4.png","","",""
"","","","","","html-slider-response","177","491230","0.0-173.0","lza0kbojh4","NaN","<div style=""width:500px;"">
                                <p style=""font-size:50px; font-weight:bold;""
                                ></p>
                                <div style=""width:240px; margin: auto;"">
                                    <img src=""images/D21.png"" style= ""width:200px""alt=""img"">
                                </div>
                            </div>","44","","0","images/D21.png","","",""
"","","","","","html-slider-response","178","493566","0.0-174.0","lza0kbojh4","NaN","<div style=""width:500px;"">
                                <p style=""font-size:50px; font-weight:bold;""
                                ></p>
                                <div style=""width:240px; margin: auto;"">
                                    <img src=""images/D30.png"" style= ""width:200px""alt=""img"">
                                </div>
                            </div>","-20","","0","images/D30.png","","",""
"","","","","","html-slider-response","179","496592","0.0-175.0","lza0kbojh4","NaN","<div style=""width:500px;"">
                                <p style=""font-size:50px; font-weight:bold;""
                                ></p>
                                <div style=""width:240px; margin: auto;"">
                                    <img src=""images/D16.png"" style= ""width:200px""alt=""img"">
                                </div>
                            </div>","53","","0","images/D16.png","","",""
"","","","","","html-slider-response","180","498625","0.0-176.0","lza0kbojh4","NaN","<div style=""width:500px;"">
                                <p style=""font-size:50px; font-weight:bold;""
                                ></p>
                                <div style=""width:240px; margin: auto;"">
                                    <img src=""images/D61.png"" style= ""width:200px""alt=""img"">
                                </div>
                            </div>","-165","","0","images/D61.png","","",""
"","","","","","html-slider-response","181","500370","0.0-177.0","lza0kbojh4","NaN","<div style=""width:500px;"">
                                <p style=""font-size:50px; font-weight:bold;""
                                ></p>
                                <div style=""width:240px; margin: auto;"">
                                    <img src=""images/D65.png"" style= ""width:200px""alt=""img"">
                                </div>
                            </div>","39","","0","images/D65.png","","",""
"","","","","","html-slider-response","182","501970","0.0-178.0","lza0kbojh4","NaN","<div style=""width:500px;"">
                                <p style=""font-size:50px; font-weight:bold;""
                                ></p>
                                <div style=""width:240px; margin: auto;"">
                                    <img src=""images/D68.png"" style= ""width:200px""alt=""img"">
                                </div>
                            </div>","19","","0","images/D68.png","","",""
"","","","","","html-slider-response","183","502801","0.0-179.0","lza0kbojh4","NaN","<div style=""width:500px;"">
                                <p style=""font-size:50px; font-weight:bold;""
                                ></p>
                                <div style=""width:240px; margin: auto;"">
                                    <img src=""images/D62.png"" style= ""width:200px""alt=""img"">
                                </div>
                            </div>","-13","","0","images/D62.png","","",""
"","","","","","html-slider-response","184","504993","0.0-180.0","lza0kbojh4","NaN","<div style=""width:500px;"">
                                <p style=""font-size:50px; font-weight:bold;""
                                ></p>
                                <div style=""width:240px; margin: auto;"">
                                    <img src=""images/D103.png"" style= ""width:200px""alt=""img"">
                                </div>
                            </div>","-4","","0","images/D103.png","","",""
"","","","","","html-slider-response","185","507573","0.0-181.0","lza0kbojh4","NaN","<div style=""width:500px;"">
                                <p style=""font-size:50px; font-weight:bold;""
                                ></p>
                                <div style=""width:240px; margin: auto;"">
                                    <img src=""images/D26.png"" style= ""width:200px""alt=""img"">
                                </div>
                            </div>","27","","0","images/D26.png","","",""
"","","","","","html-slider-response","186","509892","0.0-182.0","lza0kbojh4","NaN","<div style=""width:500px;"">
                                <p style=""font-size:50px; font-weight:bold;""
                                ></p>
                                <div style=""width:240px; margin: auto;"">
                                    <img src=""images/D12.png"" style= ""width:200px""alt=""img"">
                                </div>
                            </div>","-80","","0","images/D12.png","","",""
"","","","","","html-slider-response","187","511199","0.0-183.0","lza0kbojh4","NaN","<div style=""width:500px;"">
                                <p style=""font-size:50px; font-weight:bold;""
                                ></p>
                                <div style=""width:240px; margin: auto;"">
                                    <img src=""images/D104.png"" style= ""width:200px""alt=""img"">
                                </div>
                            </div>","-30","","0","images/D104.png","","",""
"","","","","","html-button-response","188","512551","0.0-184.0","lza0kbojh4","839","You have completed 75% of the trials. Please click 'Continue' when you are ready proceed.","0","","","","","",""
"","","","","","html-slider-response","189","513789","0.0-185.0","lza0kbojh4","NaN","<div style=""width:500px;"">
                                <p style=""font-size:50px; font-weight:bold;""
                                ></p>
                                <div style=""width:240px; margin: auto;"">
                                    <img src=""images/D76.png"" style= ""width:200px""alt=""img"">
                                </div>
                            </div>","-7","","0","images/D76.png","","",""
"","","","","","html-slider-response","190","515430","0.0-186.0","lza0kbojh4","NaN","<div style=""width:500px;"">
                                <p style=""font-size:50px; font-weight:bold;""
                                ></p>
                                <div style=""width:240px; margin: auto;"">
                                    <img src=""images/D112.png"" style= ""width:200px""alt=""img"">
                                </div>
                            </div>","-17","","0","images/D112.png","","",""
"","","","","","html-slider-response","191","516184","0.0-187.0","lza0kbojh4","NaN","<div style=""width:500px;"">
                                <p style=""font-size:50px; font-weight:bold;""
                                ></p>
                                <div style=""width:240px; margin: auto;"">
                                    <img src=""images/D89.png"" style= ""width:200px""alt=""img"">
                                </div>
                            </div>","4","","0","images/D89.png","","",""
"","","","","","html-slider-response","192","517187","0.0-188.0","lza0kbojh4","NaN","<div style=""width:500px;"">
                                <p style=""font-size:50px; font-weight:bold;""
                                ></p>
                                <div style=""width:240px; margin: auto;"">
                                    <img src=""images/D37.png"" style= ""width:200px""alt=""img"">
                                </div>
                            </div>","6","","0","images/D37.png","","",""
"","","","","","html-slider-response","193","518032","0.0-189.0","lza0kbojh4","NaN","<div style=""width:500px;"">
                                <p style=""font-size:50px; font-weight:bold;""
                                ></p>
