success,timeout,failed_images,failed_audio,failed_video,trial_type,trial_index,time_elapsed,internal_node_id,subject_id,rt,stimulus,response,question_order,slider_start,image_path,practiceTrial,practiceTrialNum,correct
TRUE,FALSE,[],[],[],preload,0,104,0.0-0.0,o65qq3pmnp,,,,,,,,,
,,,,,html-button-response,1,2950,0.0-1.0,o65qq3pmnp,2845,"<div style='text-align:center; font-size:20px; line-height:25px; width: 1200px;'>
                Welcome to our experiment! <br>
                <br>At the bottom of this screen, you will see a button that says 'Begin Experiment.
                <br>Please only click that button when you are ready to complete the 25 minute experiment in one sitting. <br>
                <br> Once you click that button, it will not be possible to restart the experiment. <br><br>",0,,,,,,
TRUE,,,,,fullscreen,2,4702,0.0-2.0,o65qq3pmnp,749,,,,,,,,
,,,,,survey-multi-select,3,9625,0.0-3.0,o65qq3pmnp,4921,,"{""Consent"":[""<strong>I consent</strong>""]}",[0],,,,,
,,,,,html-button-response,4,11855,0.0-4.0,o65qq3pmnp,2229,"Welcome! <p> This experiment involves two parts: demographic information, followed by the experimental task.<p> It will take about 25 minutes to complete both parts.",0,,,,,,
,,,,,survey-text,5,17487,0.0-5.0,o65qq3pmnp,5630,,"{""Age"":""25"",""Gender"":""nb"",""Race/ethnicity"":""w""}",,,,,,
,,,,,html-button-response,6,18175,0.0-6.0,o65qq3pmnp,687,"<div style=""width:100%; display:flex; justify-content:center; align-items: flex-start; height: auto; flex-direction: column; margin-top: 80px; margin-bottom: 50px;"">

            <!-- Centered Header Text -->
            <div style=""width:1200px; text-align:left; font-size:24px; margin-top:-250px; margin-left: 80px;"">
                During this experiment, you will be presented with images of textures.
            </div>

            <!-- First Row: Uniform Textures -->
            <div style=""width:1200px; text-align:left; font-size:24px; margin-top: 50px; margin-bottom: 10px;"">
                <div style=""display: flex; justify-content: flex-start; align-items: center;"">
                    <span style=""width:45%; margin-left: 80px; margin-right: 20px;"">
                        Some of the textures will appear very 'uniform,' which means they appear similar across the whole image. 
                        The textures to the right are examples of very uniform texture.
                    </span>
                    <img src=""uniform_ex.png"" alt=""Uniform Texture"" style=""width:200px; height:auto; margin-left:120px; margin-right: 20px;"">
                    <img src=""uniform_ex2.png"" alt=""New Uniform Texture"" style=""width:200px; height:auto; margin-left:50px;"">
                </div>
            </div>

            <!-- Second Row: Non-Uniform Textures -->
            <div style=""width:1200px; text-align:left; font-size:24px; margin-top: 50px; margin-bottom: 10px;"">
                <div style=""display: flex; justify-content: flex-start; align-items: center;"">
                    <span style=""width:45%; margin-left: 80px; margin-right: 20px;"">
                        Some of the textures will appear very 'non-uniform,' which means they look different in different parts of the image. 
                        The textures to the right are examples of very non-uniform textures.
                    </span>
                    <img src=""not_uniform_ex.png"" alt=""Non-Uniform Texture"" style=""width:200px; height:auto; margin-left:120px; margin-right: 20px;"">
                    <img src=""not_uniform_ex2.png"" alt=""New Non-Uniform Texture"" style=""width:200px; height:auto; margin-left:50px;"">
                </div>
                </div>",0,,,,,,
,,,,,html-slider-response,7,20161,0.0-7.0,o65qq3pmnp,1984,"<div style='text-align:left; height: auto; margin-left=-100px; margin-bottom: -20px; font-size:20px; line-height:25px; width: 1200px;'>
                    <br>During this experiment, you will see a series of textures, one at a time, like the ones below. 
                </div>
                    <br>
                    <br>
                    <img src=""anchoring_visual_textures2.png"" alt=""img"" style=""max-width:1200px; margin-left: -10px;"">
                </div>
                <div style=""clear: both;""></div>
                </div>
                    <div style='text-align:left; margin-left=-100px; font-size:20px; line-height:25px; width: 1200px; margin-top: -50px;'>
                    <br> Your task is to rate how uniform the texture appears on a scale from 'not at all uniform' to 'very much uniform,' like the one below.
                    <br><br> So you know what 'very much uniform' and 'not at all uniform' means to you in the context of these textures, please think about which textures below you consider 'very much uniform,' and which textures below you consider 'not at all uniform.'
                    <br><br>When you see a texture during the experiment that you consider 'very much uniform', please rate it near the 'very much uniform' endpoint of the
                    scale.<br><br> When you see a texture during the experiment that you consider 'not at all uniform', please rate it near the 'not at all uniform' endpoint
                    of the scale.<br><br>
                    Please use the full range of the scale. That is, if an texture is somewhat uniform, you would
                    click partway between the middle point and right side of the scale.                    You will be asked to rate each texture on its uniformity.<br><br>Press the
                    'Continue' button for instructions on how to use the slider.                     <br><br>",null,,0,visual_textures_anchoring.png,TRUE,,
,,,,,html-button-response,8,21196,0.0-8.0,o65qq3pmnp,1034,"<div style=""width:1200px; margin-top:-150px;""><p style=""text-align:center; font-size:24px;"">To move the slider, click and drag your cursor to the location of the scale where you would like to make your rating and then let go. <br><br> When you let go of the slider, your response will be recorded and the next trial will begin. <br><br><br>
                We are interested in your initial impressions of each image's uniformity, so please go with your first intuition. <br><br>
                Before you begin the experiment, there will be four training trials for you to practice using the scale. <br><br><br><br></div>
                <div style=""width:1200px;""><p style=""text-align:center; font-size:20px;"">When you are ready to start the training trials, please click ""Continue"".</p></div>",0,,,,,,
,,,,,html-slider-response,9,23052,0.0-9.0-0.0,o65qq3pmnp,NaN,"<div style=""width:500px;"">
                                <p style=""font-size:25px;"">Please move the slider all the way to the <br> right endpoint of the scale</p>

                                </div>
                            </div>",198,,0,,TRUE,0,TRUE
,,,,,html-button-response,10,24158,0.0-9.0-1.0,o65qq3pmnp,604,<p align='center'><b>Good job!</b> Click on 'Continue' to proceed.</p>,0,,,,,,
,,,,,html-slider-response,11,25489,0.0-10.0-0.0,o65qq3pmnp,NaN,"<div style=""width:500px;"">
                                <p style=""font-size:25px;"">Please move the slider all the way to the <br> left endpoint of the scale</p>

                                </div>
                            </div>",-194,,0,,TRUE,1,TRUE
,,,,,html-button-response,12,26701,0.0-10.0-1.0,o65qq3pmnp,709,<p align='center'><b>Good job!</b> Click on 'Continue' to proceed.</p>,0,,,,,,
,,,,,html-slider-response,13,27906,0.0-11.0-0.0,o65qq3pmnp,NaN,"<div style=""width:500px;"">
                                <p style=""font-size:25px;"">Please move the slider halfway between the center and right endpoint of the scale</p>

                                </div>
                            </div>",93,,0,,TRUE,2,TRUE
,,,,,html-button-response,14,28936,0.0-11.0-1.0,o65qq3pmnp,529,<p align='center'><b>Good job!</b> Click on 'Continue' to proceed.</p>,0,,,,,,
,,,,,html-slider-response,15,30162,0.0-12.0-0.0,o65qq3pmnp,NaN,"<div style=""width:500px;"">
                                <p style=""font-size:25px;"">Please move the slider halfway between the center and left endpoint of the scale</p>

                                </div>
                            </div>",-106,,0,,TRUE,3,TRUE
,,,,,html-button-response,16,31217,0.0-12.0-1.0,o65qq3pmnp,552,<p align='center'><b>Good job!</b> Click on 'Continue' to proceed.</p>,0,,,,,,
,,,,,html-button-response,17,32519,0.0-13.0,o65qq3pmnp,1301,"<div style=""width:800px; margin-top:-300px;""><p style=""text-align:center; font-size:22px; line-height:25px;""""> Great job! You've completed the practice trials.</div>
                     <div style=""width:800px; margin-top:-20px;""><p style=""text-align:center""><br><br> In the following trials, you will be asked to rate images on their uniformity one-by-one. <br> You will be given an oprtunities to take breaks when you have completed 25%, 50% and 75% of the trials. <br><br> Please click continue to begin the main task.<br><br><br> </div>",0,,,,,,
,,,,,html-slider-response,18,34038,0.0-14.0,o65qq3pmnp,NaN,"<div style=""width:500px;"">
                                <p style=""font-size:50px; font-weight:bold;""
                                ></p>
                                <div style=""width:240px; margin: auto;"">
                                    <img src=""images/D60.png"" style= ""width:200px""alt=""img"">
                                </div>
                            </div>",63,,0,images/D60.png,,,
,,,,,html-slider-response,19,34954,0.0-15.0,o65qq3pmnp,NaN,"<div style=""width:500px;"">
                                <p style=""font-size:50px; font-weight:bold;""
                                ></p>
                                <div style=""width:240px; margin: auto;"">
                                    <img src=""images/D26.png"" style= ""width:200px""alt=""img"">
                                </div>
                            </div>",74,,0,images/D26.png,,,
,,,,,html-slider-response,20,35806,0.0-16.0,o65qq3pmnp,NaN,"<div style=""width:500px;"">
                                <p style=""font-size:50px; font-weight:bold;""
                                ></p>
                                <div style=""width:240px; margin: auto;"">
                                    <img src=""images/D100.png"" style= ""width:200px""alt=""img"">
                                </div>
                            </div>",74,,0,images/D100.png,,,
,,,,,html-slider-response,21,36656,0.0-17.0,o65qq3pmnp,NaN,"<div style=""width:500px;"">
                                <p style=""font-size:50px; font-weight:bold;""
                                ></p>
                                <div style=""width:240px; margin: auto;"">
                                    <img src=""images/D85.png"" style= ""width:200px""alt=""img"">
                                </div>
                            </div>",74,,0,images/D85.png,,,
,,,,,html-slider-response,22,37460,0.0-18.0,o65qq3pmnp,NaN,"<div style=""width:500px;"">
                                <p style=""font-size:50px; font-weight:bold;""
                                ></p>
                                <div style=""width:240px; margin: auto;"">
                                    <img src=""images/D81.png"" style= ""width:200px""alt=""img"">
                                </div>
                            </div>",74,,0,images/D81.png,,,
,,,,,html-slider-response,23,38216,0.0-19.0,o65qq3pmnp,NaN,"<div style=""width:500px;"">
                                <p style=""font-size:50px; font-weight:bold;""
                                ></p>
                                <div style=""width:240px; margin: auto;"">
                                    <img src=""images/D13.png"" style= ""width:200px""alt=""img"">
                                </div>
                            </div>",74,,0,images/D13.png,,,
,,,,,html-slider-response,24,38877,0.0-20.0,o65qq3pmnp,NaN,"<div style=""width:500px;"">
                                <p style=""font-size:50px; font-weight:bold;""
                                ></p>
                                <div style=""width:240px; margin: auto;"">
                                    <img src=""images/D83.png"" style= ""width:200px""alt=""img"">
                                </div>
                            </div>",74,,0,images/D83.png,,,
,,,,,html-slider-response,25,39738,0.0-21.0,o65qq3pmnp,NaN,"<div style=""width:500px;"">
                                <p style=""font-size:50px; font-weight:bold;""
                                ></p>
                                <div style=""width:240px; margin: auto;"">
                                    <img src=""images/D15.png"" style= ""width:200px""alt=""img"">
                                </div>
                            </div>",74,,0,images/D15.png,,,
,,,,,html-slider-response,26,40512,0.0-22.0,o65qq3pmnp,NaN,"<div style=""width:500px;"">
                                <p style=""font-size:50px; font-weight:bold;""
                                ></p>
                                <div style=""width:240px; margin: auto;"">
                                    <img src=""images/D33.png"" style= ""width:200px""alt=""img"">
                                </div>
                            </div>",74,,0,images/D33.png,,,
,,,,,html-slider-response,27,41258,0.0-23.0,o65qq3pmnp,NaN,"<div style=""width:500px;"">
                                <p style=""font-size:50px; font-weight:bold;""
                                ></p>
                                <div style=""width:240px; margin: auto;"">
                                    <img src=""images/D101.png"" style= ""width:200px""alt=""img"">
                                </div>
                            </div>",74,,0,images/D101.png,,,
,,,,,html-slider-response,28,41990,0.0-24.0,o65qq3pmnp,NaN,"<div style=""width:500px;"">
                                <p style=""font-size:50px; font-weight:bold;""
                                ></p>
                                <div style=""width:240px; margin: auto;"">
                                    <img src=""images/D78.png"" style= ""width:200px""alt=""img"">
                                </div>
                            </div>",74,,0,images/D78.png,,,
,,,,,html-slider-response,29,42733,0.0-25.0,o65qq3pmnp,NaN,"<div style=""width:500px;"">
                                <p style=""font-size:50px; font-weight:bold;""
                                ></p>
                                <div style=""width:240px; margin: auto;"">
                                    <img src=""images/D28.png"" style= ""width:200px""alt=""img"">
                                </div>
                            </div>",74,,0,images/D28.png,,,
,,,,,html-slider-response,30,43475,0.0-26.0,o65qq3pmnp,NaN,"<div style=""width:500px;"">
                                <p style=""font-size:50px; font-weight:bold;""
                                ></p>
                                <div style=""width:240px; margin: auto;"">
                                    <img src=""images/D104.png"" style= ""width:200px""alt=""img"">
                                </div>
                            </div>",74,,0,images/D104.png,,,
,,,,,html-slider-response,31,44155,0.0-27.0,o65qq3pmnp,NaN,"<div style=""width:500px;"">
                                <p style=""font-size:50px; font-weight:bold;""
                                ></p>
                                <div style=""width:240px; margin: auto;"">
                                    <img src=""images/D94.png"" style= ""width:200px""alt=""img"">
                                </div>
                            </div>",74,,0,images/D94.png,,,
,,,,,html-slider-response,32,44980,0.0-28.0,o65qq3pmnp,NaN,"<div style=""width:500px;"">
                                <p style=""font-size:50px; font-weight:bold;""
                                ></p>
                                <div style=""width:240px; margin: auto;"">
                                    <img src=""images/D74.png"" style= ""width:200px""alt=""img"">
                                </div>
                            </div>",74,,0,images/D74.png,,,
,,,,,html-slider-response,33,45787,0.0-29.0,o65qq3pmnp,NaN,"<div style=""width:500px;"">
                                <p style=""font-size:50px; font-weight:bold;""
                                ></p>
                                <div style=""width:240px; margin: auto;"">
                                    <img src=""images/D106.png"" style= ""width:200px""alt=""img"">
                                </div>
                            </div>",74,,0,images/D106.png,,,
,,,,,html-slider-response,34,46562,0.0-30.0,o65qq3pmnp,NaN,"<div style=""width:500px;"">
                                <p style=""font-size:50px; font-weight:bold;""
                                ></p>
                                <div style=""width:240px; margin: auto;"">
                                    <img src=""images/D62.png"" style= ""width:200px""alt=""img"">
                                </div>
                            </div>",74,,0,images/D62.png,,,
,,,,,html-slider-response,35,47358,0.0-31.0,o65qq3pmnp,NaN,"<div style=""width:500px;"">
                                <p style=""font-size:50px; font-weight:bold;""
                                ></p>
                                <div style=""width:240px; margin: auto;"">
                                    <img src=""images/D95.png"" style= ""width:200px""alt=""img"">
                                </div>
                            </div>",74,,0,images/D95.png,,,
,,,,,html-slider-response,36,48190,0.0-32.0,o65qq3pmnp,NaN,"<div style=""width:500px;"">
                                <p style=""font-size:50px; font-weight:bold;""
                                ></p>
                                <div style=""width:240px; margin: auto;"">
                                    <img src=""images/D68.png"" style= ""width:200px""alt=""img"">
                                </div>
                            </div>",74,,0,images/D68.png,,,
,,,,,html-slider-response,37,48948,0.0-33.0,o65qq3pmnp,NaN,"<div style=""width:500px;"">
                                <p style=""font-size:50px; font-weight:bold;""
                                ></p>
                                <div style=""width:240px; margin: auto;"">
                                    <img src=""images/D35.png"" style= ""width:200px""alt=""img"">
                                </div>
                            </div>",74,,0,images/D35.png,,,
,,,,,html-slider-response,38,49743,0.0-34.0,o65qq3pmnp,NaN,"<div style=""width:500px;"">
                                <p style=""font-size:50px; font-weight:bold;""
                                ></p>
                                <div style=""width:240px; margin: auto;"">
                                    <img src=""images/D59.png"" style= ""width:200px""alt=""img"">
                                </div>
                            </div>",74,,0,images/D59.png,,,
,,,,,html-slider-response,39,50554,0.0-35.0,o65qq3pmnp,NaN,"<div style=""width:500px;"">
                                <p style=""font-size:50px; font-weight:bold;""
                                ></p>
                                <div style=""width:240px; margin: auto;"">
                                    <img src=""images/D77.png"" style= ""width:200px""alt=""img"">
                                </div>
                            </div>",74,,0,images/D77.png,,,
,,,,,html-slider-response,40,51461,0.0-36.0,o65qq3pmnp,NaN,"<div style=""width:500px;"">
                                <p style=""font-size:50px; font-weight:bold;""
                                ></p>
                                <div style=""width:240px; margin: auto;"">
                                    <img src=""images/D17.png"" style= ""width:200px""alt=""img"">
                                </div>
                            </div>",74,,0,images/D17.png,,,
,,,,,html-slider-response,41,52285,0.0-37.0,o65qq3pmnp,NaN,"<div style=""width:500px;"">
                                <p style=""font-size:50px; font-weight:bold;""
                                ></p>
                                <div style=""width:240px; margin: auto;"">
                                    <img src=""images/D43.png"" style= ""width:200px""alt=""img"">
                                </div>
                            </div>",74,,0,images/D43.png,,,
,,,,,html-slider-response,42,53133,0.0-38.0,o65qq3pmnp,NaN,"<div style=""width:500px;"">
                                <p style=""font-size:50px; font-weight:bold;""
                                ></p>
                                <div style=""width:240px; margin: auto;"">
                                    <img src=""images/D44.png"" style= ""width:200px""alt=""img"">
                                </div>
                            </div>",74,,0,images/D44.png,,,
,,,,,html-slider-response,43,54034,0.0-39.0,o65qq3pmnp,NaN,"<div style=""width:500px;"">
                                <p style=""font-size:50px; font-weight:bold;""
                                ></p>
                                <div style=""width:240px; margin: auto;"">
                                    <img src=""images/D51.png"" style= ""width:200px""alt=""img"">
                                </div>
                            </div>",74,,0,images/D51.png,,,
,,,,,html-slider-response,44,54994,0.0-40.0,o65qq3pmnp,NaN,"<div style=""width:500px;"">
                                <p style=""font-size:50px; font-weight:bold;""
                                ></p>
                                <div style=""width:240px; margin: auto;"">
                                    <img src=""images/D8.png"" style= ""width:200px""alt=""img"">
                                </div>
                            </div>",74,,0,images/D8.png,,,
,,,,,html-slider-response,45,55800,0.0-41.0,o65qq3pmnp,NaN,"<div style=""width:500px;"">
                                <p style=""font-size:50px; font-weight:bold;""
                                ></p>
                                <div style=""width:240px; margin: auto;"">
                                    <img src=""images/D19.png"" style= ""width:200px""alt=""img"">
                                </div>
                            </div>",74,,0,images/D19.png,,,
,,,,,html-slider-response,46,56672,0.0-42.0,o65qq3pmnp,NaN,"<div style=""width:500px;"">
                                <p style=""font-size:50px; font-weight:bold;""
                                ></p>
                                <div style=""width:240px; margin: auto;"">
                                    <img src=""images/D107.png"" style= ""width:200px""alt=""img"">
                                </div>
                            </div>",74,,0,images/D107.png,,,
,,,,,html-slider-response,47,57513,0.0-43.0,o65qq3pmnp,NaN,"<div style=""width:500px;"">
                                <p style=""font-size:50px; font-weight:bold;""
                                ></p>
                                <div style=""width:240px; margin: auto;"">
                                    <img src=""images/D1.png"" style= ""width:200px""alt=""img"">
                                </div>
                            </div>",74,,0,images/D1.png,,,
,,,,,html-slider-response,48,58377,0.0-44.0,o65qq3pmnp,NaN,"<div style=""width:500px;"">
                                <p style=""font-size:50px; font-weight:bold;""
                                ></p>
                                <div style=""width:240px; margin: auto;"">
                                    <img src=""images/D56.png"" style= ""width:200px""alt=""img"">
                                </div>
                            </div>",74,,0,images/D56.png,,,
,,,,,html-slider-response,49,59210,0.0-45.0,o65qq3pmnp,NaN,"<div style=""width:500px;"">
                                <p style=""font-size:50px; font-weight:bold;""
                                ></p>
                                <div style=""width:240px; margin: auto;"">
                                    <img src=""images/D61.png"" style= ""width:200px""alt=""img"">
                                </div>
                            </div>",74,,0,images/D61.png,,,
,,,,,html-slider-response,50,60069,0.0-46.0,o65qq3pmnp,NaN,"<div style=""width:500px;"">
                                <p style=""font-size:50px; font-weight:bold;""
                                ></p>
                                <div style=""width:240px; margin: auto;"">
                                    <img src=""images/D66.png"" style= ""width:200px""alt=""img"">
                                </div>
                            </div>",74,,0,images/D66.png,,,
,,,,,html-slider-response,51,60912,0.0-47.0,o65qq3pmnp,NaN,"<div style=""width:500px;"">
                                <p style=""font-size:50px; font-weight:bold;""
                                ></p>
                                <div style=""width:240px; margin: auto;"">
                                    <img src=""images/D111.png"" style= ""width:200px""alt=""img"">
                                </div>
                            </div>",74,,0,images/D111.png,,,
,,,,,html-slider-response,52,61774,0.0-48.0,o65qq3pmnp,NaN,"<div style=""width:500px;"">
                                <p style=""font-size:50px; font-weight:bold;""
                                ></p>
                                <div style=""width:240px; margin: auto;"">
                                    <img src=""images/D64.png"" style= ""width:200px""alt=""img"">
                                </div>
                            </div>",74,,0,images/D64.png,,,
,,,,,html-slider-response,53,62606,0.0-49.0,o65qq3pmnp,NaN,"<div style=""width:500px;"">
                                <p style=""font-size:50px; font-weight:bold;""
                                ></p>
                                <div style=""width:240px; margin: auto;"">
                                    <img src=""images/D9.png"" style= ""width:200px""alt=""img"">
                                </div>
                            </div>",74,,0,images/D9.png,,,
,,,,,html-slider-response,54,63424,0.0-50.0,o65qq3pmnp,NaN,"<div style=""width:500px;"">
                                <p style=""font-size:50px; font-weight:bold;""
                                ></p>
                                <div style=""width:240px; margin: auto;"">
                                    <img src=""images/D47.png"" style= ""width:200px""alt=""img"">
                                </div>
                            </div>",74,,0,images/D47.png,,,
,,,,,html-slider-response,55,64263,0.0-51.0,o65qq3pmnp,NaN,"<div style=""width:500px;"">
                                <p style=""font-size:50px; font-weight:bold;""
                                ></p>
                                <div style=""width:240px; margin: auto;"">
                                    <img src=""images/D86.png"" style= ""width:200px""alt=""img"">
                                </div>
                            </div>",74,,0,images/D86.png,,,
,,,,,html-slider-response,56,65059,0.0-52.0,o65qq3pmnp,NaN,"<div style=""width:500px;"">
                                <p style=""font-size:50px; font-weight:bold;""
                                ></p>
                                <div style=""width:240px; margin: auto;"">
                                    <img src=""images/D2.png"" style= ""width:200px""alt=""img"">
                                </div>
                            </div>",74,,0,images/D2.png,,,
,,,,,html-slider-response,57,65914,0.0-53.0,o65qq3pmnp,NaN,"<div style=""width:500px;"">
                                <p style=""font-size:50px; font-weight:bold;""
                                ></p>
                                <div style=""width:240px; margin: auto;"">
                                    <img src=""images/D29.png"" style= ""width:200px""alt=""img"">
                                </div>
                            </div>",74,,0,images/D29.png,,,
,,,,,html-slider-response,58,66787,0.0-54.0,o65qq3pmnp,NaN,"<div style=""width:500px;"">
                                <p style=""font-size:50px; font-weight:bold;""
                                ></p>
                                <div style=""width:240px; margin: auto;"">
                                    <img src=""images/D92.png"" style= ""width:200px""alt=""img"">
                                </div>
                            </div>",74,,0,images/D92.png,,,
,,,,,html-slider-response,59,67607,0.0-55.0,o65qq3pmnp,NaN,"<div style=""width:500px;"">
                                <p style=""font-size:50px; font-weight:bold;""
                                ></p>
                                <div style=""width:240px; margin: auto;"">
                                    <img src=""images/D80.png"" style= ""width:200px""alt=""img"">
                                </div>
                            </div>",74,,0,images/D80.png,,,
,,,,,html-slider-response,60,68469,0.0-56.0,o65qq3pmnp,NaN,"<div style=""width:500px;"">
                                <p style=""font-size:50px; font-weight:bold;""
                                ></p>
                                <div style=""width:240px; margin: auto;"">
                                    <img src=""images/D16.png"" style= ""width:200px""alt=""img"">
                                </div>
                            </div>",74,,0,images/D16.png,,,
,,,,,html-slider-response,61,69287,0.0-57.0,o65qq3pmnp,NaN,"<div style=""width:500px;"">
                                <p style=""font-size:50px; font-weight:bold;""
                                ></p>
                                <div style=""width:240px; margin: auto;"">
                                    <img src=""images/D45.png"" style= ""width:200px""alt=""img"">
                                </div>
                            </div>",74,,0,images/D45.png,,,
,,,,,html-slider-response,62,70118,0.0-58.0,o65qq3pmnp,NaN,"<div style=""width:500px;"">
                                <p style=""font-size:50px; font-weight:bold;""
                                ></p>
                                <div style=""width:240px; margin: auto;"">
                                    <img src=""images/D102.png"" style= ""width:200px""alt=""img"">
                                </div>
                            </div>",74,,0,images/D102.png,,,
,,,,,html-slider-response,63,71065,0.0-59.0,o65qq3pmnp,NaN,"<div style=""width:500px;"">
                                <p style=""font-size:50px; font-weight:bold;""
                                ></p>
                                <div style=""width:240px; margin: auto;"">
                                    <img src=""images/D32.png"" style= ""width:200px""alt=""img"">
                                </div>
                            </div>",74,,0,images/D32.png,,,
,,,,,html-slider-response,64,71919,0.0-60.0,o65qq3pmnp,NaN,"<div style=""width:500px;"">
                                <p style=""font-size:50px; font-weight:bold;""
                                ></p>
                                <div style=""width:240px; margin: auto;"">
                                    <img src=""images/D24.png"" style= ""width:200px""alt=""img"">
                                </div>
                            </div>",74,,0,images/D24.png,,,
,,,,,html-slider-response,65,72776,0.0-61.0,o65qq3pmnp,NaN,"<div style=""width:500px;"">
                                <p style=""font-size:50px; font-weight:bold;""
                                ></p>
                                <div style=""width:240px; margin: auto;"">
                                    <img src=""images/D48.png"" style= ""width:200px""alt=""img"">
                                </div>
                            </div>",74,,0,images/D48.png,,,
,,,,,html-slider-response,66,73667,0.0-62.0,o65qq3pmnp,NaN,"<div style=""width:500px;"">
                                <p style=""font-size:50px; font-weight:bold;""
                                ></p>
                                <div style=""width:240px; margin: auto;"">
                                    <img src=""images/D55.png"" style= ""width:200px""alt=""img"">
                                </div>
                            </div>",74,,0,images/D55.png,,,
,,,,,html-slider-response,67,74551,0.0-63.0,o65qq3pmnp,NaN,"<div style=""width:500px;"">
                                <p style=""font-size:50px; font-weight:bold;""
                                ></p>
                                <div style=""width:240px; margin: auto;"">
                                    <img src=""images/D108.png"" style= ""width:200px""alt=""img"">
                                </div>
                            </div>",74,,0,images/D108.png,,,
,,,,,html-slider-response,68,75461,0.0-64.0,o65qq3pmnp,NaN,"<div style=""width:500px;"">
                                <p style=""font-size:50px; font-weight:bold;""
                                ></p>
                                <div style=""width:240px; margin: auto;"">
                                    <img src=""images/D14.png"" style= ""width:200px""alt=""img"">
                                </div>
                            </div>",74,,0,images/D14.png,,,
,,,,,html-slider-response,69,76359,0.0-65.0,o65qq3pmnp,NaN,"<div style=""width:500px;"">
                                <p style=""font-size:50px; font-weight:bold;""
                                ></p>
                                <div style=""width:240px; margin: auto;"">
                                    <img src=""images/D73.png"" style= ""width:200px""alt=""img"">
                                </div>
                            </div>",74,,0,images/D73.png,,,
,,,,,html-slider-response,70,77222,0.0-66.0,o65qq3pmnp,NaN,"<div style=""width:500px;"">
                                <p style=""font-size:50px; font-weight:bold;""
                                ></p>
                                <div style=""width:240px; margin: auto;"">
                                    <img src=""images/D31.png"" style= ""width:200px""alt=""img"">
                                </div>
                            </div>",74,,0,images/D31.png,,,
,,,,,html-slider-response,71,78160,0.0-67.0,o65qq3pmnp,NaN,"<div style=""width:500px;"">
                                <p style=""font-size:50px; font-weight:bold;""
                                ></p>
                                <div style=""width:240px; margin: auto;"">
                                    <img src=""images/D4.png"" style= ""width:200px""alt=""img"">
                                </div>
                            </div>",74,,0,images/D4.png,,,
,,,,,html-slider-response,72,79083,0.0-68.0,o65qq3pmnp,NaN,"<div style=""width:500px;"">
                                <p style=""font-size:50px; font-weight:bold;""
                                ></p>
                                <div style=""width:240px; margin: auto;"">
                                    <img src=""images/D37.png"" style= ""width:200px""alt=""img"">
                                </div>
                            </div>",74,,0,images/D37.png,,,
,,,,,html-slider-response,73,80101,0.0-69.0,o65qq3pmnp,NaN,"<div style=""width:500px;"">
                                <p style=""font-size:50px; font-weight:bold;""
                                ></p>
                                <div style=""width:240px; margin: auto;"">
                                    <img src=""images/D110.png"" style= ""width:200px""alt=""img"">
                                </div>
                            </div>",74,,0,images/D110.png,,,
,,,,,html-button-response,74,82874,0.0-70.0,o65qq3pmnp,2270,You have completed 25% of the trials. Please click 'Continue' when you are ready proceed.,0,,,,,,
,,,,,html-slider-response,75,84181,0.0-71.0,o65qq3pmnp,NaN,"<div style=""width:500px;"">
                                <p style=""font-size:50px; font-weight:bold;""
                                ></p>
                                <div style=""width:240px; margin: auto;"">
                                    <img src=""images/D42.png"" style= ""width:200px""alt=""img"">
                                </div>
                            </div>",136,,0,images/D42.png,,,
,,,,,html-slider-response,76,85007,0.0-72.0,o65qq3pmnp,NaN,"<div style=""width:500px;"">
                                <p style=""font-size:50px; font-weight:bold;""
                                ></p>
                                <div style=""width:240px; margin: auto;"">
                                    <img src=""images/D75.png"" style= ""width:200px""alt=""img"">
                                </div>
                            </div>",137,,0,images/D75.png,,,
,,,,,html-slider-response,77,85893,0.0-73.0,o65qq3pmnp,NaN,"<div style=""width:500px;"">
                                <p style=""font-size:50px; font-weight:bold;""
                                ></p>
                                <div style=""width:240px; margin: auto;"">
                                    <img src=""images/D30.png"" style= ""width:200px""alt=""img"">
                                </div>
                            </div>",137,,0,images/D30.png,,,
,,,,,html-slider-response,78,86747,0.0-74.0,o65qq3pmnp,NaN,"<div style=""width:500px;"">
                                <p style=""font-size:50px; font-weight:bold;""
                                ></p>
                                <div style=""width:240px; margin: auto;"">
                                    <img src=""images/D52.png"" style= ""width:200px""alt=""img"">
                                </div>
                            </div>",137,,0,images/D52.png,,,
,,,,,html-slider-response,79,87573,0.0-75.0,o65qq3pmnp,NaN,"<div style=""width:500px;"">
                                <p style=""font-size:50px; font-weight:bold;""
                                ></p>
                                <div style=""width:240px; margin: auto;"">
                                    <img src=""images/D49.png"" style= ""width:200px""alt=""img"">
                                </div>
                            </div>",137,,0,images/D49.png,,,
,,,,,html-slider-response,80,88419,0.0-76.0,o65qq3pmnp,NaN,"<div style=""width:500px;"">
                                <p style=""font-size:50px; font-weight:bold;""
                                ></p>
                                <div style=""width:240px; margin: auto;"">
                                    <img src=""images/D57.png"" style= ""width:200px""alt=""img"">
                                </div>
                            </div>",137,,0,images/D57.png,,,
,,,,,html-slider-response,81,89207,0.0-77.0,o65qq3pmnp,NaN,"<div style=""width:500px;"">
                                <p style=""font-size:50px; font-weight:bold;""
                                ></p>
                                <div style=""width:240px; margin: auto;"">
                                    <img src=""images/D87.png"" style= ""width:200px""alt=""img"">
                                </div>
                            </div>",137,,0,images/D87.png,,,
,,,,,html-slider-response,82,90070,0.0-78.0,o65qq3pmnp,NaN,"<div style=""width:500px;"">
                                <p style=""font-size:50px; font-weight:bold;""
                                ></p>
                                <div style=""width:240px; margin: auto;"">
                                    <img src=""images/D103.png"" style= ""width:200px""alt=""img"">
                                </div>
                            </div>",137,,0,images/D103.png,,,
,,,,,html-slider-response,83,90972,0.0-79.0,o65qq3pmnp,NaN,"<div style=""width:500px;"">
                                <p style=""font-size:50px; font-weight:bold;""
                                ></p>
                                <div style=""width:240px; margin: auto;"">
                                    <img src=""images/D67.png"" style= ""width:200px""alt=""img"">
                                </div>
                            </div>",137,,0,images/D67.png,,,
,,,,,html-slider-response,84,91835,0.0-80.0,o65qq3pmnp,NaN,"<div style=""width:500px;"">
                                <p style=""font-size:50px; font-weight:bold;""
                                ></p>
                                <div style=""width:240px; margin: auto;"">
                                    <img src=""images/D71.png"" style= ""width:200px""alt=""img"">
                                </div>
                            </div>",137,,0,images/D71.png,,,
,,,,,html-slider-response,85,92725,0.0-81.0,o65qq3pmnp,NaN,"<div style=""width:500px;"">
                                <p style=""font-size:50px; font-weight:bold;""
                                ></p>
                                <div style=""width:240px; margin: auto;"">
                                    <img src=""images/D109.png"" style= ""width:200px""alt=""img"">
                                </div>
                            </div>",137,,0,images/D109.png,,,
,,,,,html-slider-response,86,93594,0.0-82.0,o65qq3pmnp,NaN,"<div style=""width:500px;"">
                                <p style=""font-size:50px; font-weight:bold;""
                                ></p>
                                <div style=""width:240px; margin: auto;"">
                                    <img src=""images/D72.png"" style= ""width:200px""alt=""img"">
                                </div>
                            </div>",137,,0,images/D72.png,,,
,,,,,html-slider-response,87,94531,0.0-83.0,o65qq3pmnp,NaN,"<div style=""width:500px;"">
                                <p style=""font-size:50px; font-weight:bold;""
                                ></p>
                                <div style=""width:240px; margin: auto;"">
                                    <img src=""images/D99.png"" style= ""width:200px""alt=""img"">
                                </div>
                            </div>",137,,0,images/D99.png,,,
,,,,,html-slider-response,88,95409,0.0-84.0,o65qq3pmnp,NaN,"<div style=""width:500px;"">
                                <p style=""font-size:50px; font-weight:bold;""
                                ></p>
                                <div style=""width:240px; margin: auto;"">
                                    <img src=""images/D12.png"" style= ""width:200px""alt=""img"">
                                </div>
                            </div>",137,,0,images/D12.png,,,
,,,,,html-slider-response,89,96272,0.0-85.0,o65qq3pmnp,NaN,"<div style=""width:500px;"">
                                <p style=""font-size:50px; font-weight:bold;""
                                ></p>
                                <div style=""width:240px; margin: auto;"">
                                    <img src=""images/D39.png"" style= ""width:200px""alt=""img"">
                                </div>
                            </div>",137,,0,images/D39.png,,,
,,,,,html-slider-response,90,97149,0.0-86.0,o65qq3pmnp,NaN,"<div style=""width:500px;"">
                                <p style=""font-size:50px; font-weight:bold;""
                                ></p>
                                <div style=""width:240px; margin: auto;"">
                                    <img src=""images/D7.png"" style= ""width:200px""alt=""img"">
                                </div>
                            </div>",137,,0,images/D7.png,,,
,,,,,html-slider-response,91,98087,0.0-87.0,o65qq3pmnp,NaN,"<div style=""width:500px;"">
                                <p style=""font-size:50px; font-weight:bold;""
                                ></p>
                                <div style=""width:240px; margin: auto;"">
                                    <img src=""images/D96.png"" style= ""width:200px""alt=""img"">
                                </div>
                            </div>",137,,0,images/D96.png,,,
,,,,,html-slider-response,92,98955,0.0-88.0,o65qq3pmnp,NaN,"<div style=""width:500px;"">
                                <p style=""font-size:50px; font-weight:bold;""
                                ></p>
                                <div style=""width:240px; margin: auto;"">
                                    <img src=""images/D46.png"" style= ""width:200px""alt=""img"">
                                </div>
                            </div>",137,,0,images/D46.png,,,
,,,,,html-slider-response,93,99752,0.0-89.0,o65qq3pmnp,NaN,"<div style=""width:500px;"">
                                <p style=""font-size:50px; font-weight:bold;""
                                ></p>
                                <div style=""width:240px; margin: auto;"">
                                    <img src=""images/D23.png"" style= ""width:200px""alt=""img"">
                                </div>
                            </div>",137,,0,images/D23.png,,,
,,,,,html-slider-response,94,100577,0.0-90.0,o65qq3pmnp,NaN,"<div style=""width:500px;"">
                                <p style=""font-size:50px; font-weight:bold;""
                                ></p>
                                <div style=""width:240px; margin: auto;"">
                                    <img src=""images/D41.png"" style= ""width:200px""alt=""img"">
                                </div>
                            </div>",137,,0,images/D41.png,,,
,,,,,html-slider-response,95,101372,0.0-91.0,o65qq3pmnp,NaN,"<div style=""width:500px;"">
                                <p style=""font-size:50px; font-weight:bold;""
                                ></p>
                                <div style=""width:240px; margin: auto;"">
                                    <img src=""images/D82.png"" style= ""width:200px""alt=""img"">
                                </div>
                            </div>",137,,0,images/D82.png,,,
,,,,,html-slider-response,96,102294,0.0-92.0,o65qq3pmnp,NaN,"<div style=""width:500px;"">
                                <p style=""font-size:50px; font-weight:bold;""
                                ></p>
                                <div style=""width:240px; margin: auto;"">
                                    <img src=""images/D65.png"" style= ""width:200px""alt=""img"">
                                </div>
                            </div>",137,,0,images/D65.png,,,
,,,,,html-slider-response,97,103052,0.0-93.0,o65qq3pmnp,NaN,"<div style=""width:500px;"">
                                <p style=""font-size:50px; font-weight:bold;""
                                ></p>
                                <div style=""width:240px; margin: auto;"">
                                    <img src=""images/D53.png"" style= ""width:200px""alt=""img"">
                                </div>
                            </div>",137,,0,images/D53.png,,,
,,,,,html-slider-response,98,103883,0.0-94.0,o65qq3pmnp,NaN,"<div style=""width:500px;"">
                                <p style=""font-size:50px; font-weight:bold;""
                                ></p>
                                <div style=""width:240px; margin: auto;"">
                                    <img src=""images/D5.png"" style= ""width:200px""alt=""img"">
                                </div>
                            </div>",137,,0,images/D5.png,,,
,,,,,html-slider-response,99,104703,0.0-95.0,o65qq3pmnp,NaN,"<div style=""width:500px;"">
                                <p style=""font-size:50px; font-weight:bold;""
                                ></p>
                                <div style=""width:240px; margin: auto;"">
                                    <img src=""images/D70.png"" style= ""width:200px""alt=""img"">
                                </div>
                            </div>",137,,0,images/D70.png,,,
,,,,,html-slider-response,100,105490,0.0-96.0,o65qq3pmnp,NaN,"<div style=""width:500px;"">
                                <p style=""font-size:50px; font-weight:bold;""
                                ></p>
                                <div style=""width:240px; margin: auto;"">
                                    <img src=""images/D89.png"" style= ""width:200px""alt=""img"">
                                </div>
                            </div>",137,,0,images/D89.png,,,
,,,,,html-slider-response,101,106322,0.0-97.0,o65qq3pmnp,NaN,"<div style=""width:500px;"">
                                <p style=""font-size:50px; font-weight:bold;""
                                ></p>
                                <div style=""width:240px; margin: auto;"">
                                    <img src=""images/D22.png"" style= ""width:200px""alt=""img"">
                                </div>
                            </div>",137,,0,images/D22.png,,,
,,,,,html-slider-response,102,107154,0.0-98.0,o65qq3pmnp,NaN,"<div style=""width:500px;"">
                                <p style=""font-size:50px; font-weight:bold;""
                                ></p>
                                <div style=""width:240px; margin: auto;"">
                                    <img src=""images/D112.png"" style= ""width:200px""alt=""img"">
                                </div>
                            </div>",137,,0,images/D112.png,,,
,,,,,html-slider-response,103,107987,0.0-99.0,o65qq3pmnp,NaN,"<div style=""width:500px;"">
                                <p style=""font-size:50px; font-weight:bold;""
                                ></p>
                                <div style=""width:240px; margin: auto;"">
                                    <img src=""images/D93.png"" style= ""width:200px""alt=""img"">
                                </div>
                            </div>",137,,0,images/D93.png,,,
,,,,,html-slider-response,104,108842,0.0-100.0,o65qq3pmnp,NaN,"<div style=""width:500px;"">
                                <p style=""font-size:50px; font-weight:bold;""
                                ></p>
                                <div style=""width:240px; margin: auto;"">
                                    <img src=""images/D27.png"" style= ""width:200px""alt=""img"">
                                </div>
                            </div>",137,,0,images/D27.png,,,
,,,,,html-slider-response,105,109696,0.0-101.0,o65qq3pmnp,NaN,"<div style=""width:500px;"">
                                <p style=""font-size:50px; font-weight:bold;""
                                ></p>
                                <div style=""width:240px; margin: auto;"">
                                    <img src=""images/D40.png"" style= ""width:200px""alt=""img"">
                                </div>
                            </div>",137,,0,images/D40.png,,,
,,,,,html-slider-response,106,110531,0.0-102.0,o65qq3pmnp,NaN,"<div style=""width:500px;"">
                                <p style=""font-size:50px; font-weight:bold;""
                                ></p>
                                <div style=""width:240px; margin: auto;"">
                                    <img src=""images/D20.png"" style= ""width:200px""alt=""img"">
                                </div>
                            </div>",137,,0,images/D20.png,,,
,,,,,html-slider-response,107,111376,0.0-103.0,o65qq3pmnp,NaN,"<div style=""width:500px;"">
                                <p style=""font-size:50px; font-weight:bold;""
                                ></p>
                                <div style=""width:240px; margin: auto;"">
                                    <img src=""images/D63.png"" style= ""width:200px""alt=""img"">
                                </div>
                            </div>",137,,0,images/D63.png,,,
,,,,,html-slider-response,108,112261,0.0-104.0,o65qq3pmnp,NaN,"<div style=""width:500px;"">
                                <p style=""font-size:50px; font-weight:bold;""
                                ></p>
                                <div style=""width:240px; margin: auto;"">
                                    <img src=""images/D38.png"" style= ""width:200px""alt=""img"">
                                </div>
                            </div>",137,,0,images/D38.png,,,
,,,,,html-slider-response,109,113092,0.0-105.0,o65qq3pmnp,NaN,"<div style=""width:500px;"">
                                <p style=""font-size:50px; font-weight:bold;""
                                ></p>
                                <div style=""width:240px; margin: auto;"">
                                    <img src=""images/D79.png"" style= ""width:200px""alt=""img"">
                                </div>
                            </div>",137,,0,images/D79.png,,,
,,,,,html-slider-response,110,113984,0.0-106.0,o65qq3pmnp,NaN,"<div style=""width:500px;"">
                                <p style=""font-size:50px; font-weight:bold;""
                                ></p>
                                <div style=""width:240px; margin: auto;"">
                                    <img src=""images/D36.png"" style= ""width:200px""alt=""img"">
                                </div>
                            </div>",137,,0,images/D36.png,,,
,,,,,html-slider-response,111,114864,0.0-107.0,o65qq3pmnp,NaN,"<div style=""width:500px;"">
                                <p style=""font-size:50px; font-weight:bold;""
                                ></p>
                                <div style=""width:240px; margin: auto;"">
                                    <img src=""images/D54.png"" style= ""width:200px""alt=""img"">
                                </div>
                            </div>",137,,0,images/D54.png,,,
,,,,,html-slider-response,112,115740,0.0-108.0,o65qq3pmnp,NaN,"<div style=""width:500px;"">
                                <p style=""font-size:50px; font-weight:bold;""
                                ></p>
                                <div style=""width:240px; margin: auto;"">
                                    <img src=""images/D25.png"" style= ""width:200px""alt=""img"">
                                </div>
                            </div>",137,,0,images/D25.png,,,
,,,,,html-slider-response,113,116603,0.0-109.0,o65qq3pmnp,NaN,"<div style=""width:500px;"">
                                <p style=""font-size:50px; font-weight:bold;""
                                ></p>
                                <div style=""width:240px; margin: auto;"">
                                    <img src=""images/D88.png"" style= ""width:200px""alt=""img"">
                                </div>
                            </div>",137,,0,images/D88.png,,,
,,,,,html-slider-response,114,117422,0.0-110.0,o65qq3pmnp,NaN,"<div style=""width:500px;"">
                                <p style=""font-size:50px; font-weight:bold;""
                                ></p>
                                <div style=""width:240px; margin: auto;"">
                                    <img src=""images/D69.png"" style= ""width:200px""alt=""img"">
                                </div>
                            </div>",137,,0,images/D69.png,,,
,,,,,html-slider-response,115,118283,0.0-111.0,o65qq3pmnp,NaN,"<div style=""width:500px;"">
                                <p style=""font-size:50px; font-weight:bold;""
                                ></p>
                                <div style=""width:240px; margin: auto;"">
                                    <img src=""images/D97.png"" style= ""width:200px""alt=""img"">
                                </div>
                            </div>",137,,0,images/D97.png,,,
,,,,,html-slider-response,116,119131,0.0-112.0,o65qq3pmnp,NaN,"<div style=""width:500px;"">
                                <p style=""font-size:50px; font-weight:bold;""
                                ></p>
                                <div style=""width:240px; margin: auto;"">
                                    <img src=""images/D10.png"" style= ""width:200px""alt=""img"">
                                </div>
                            </div>",137,,0,images/D10.png,,,
,,,,,html-slider-response,117,119962,0.0-113.0,o65qq3pmnp,NaN,"<div style=""width:500px;"">
                                <p style=""font-size:50px; font-weight:bold;""
                                ></p>
                                <div style=""width:240px; margin: auto;"">
                                    <img src=""images/D11.png"" style= ""width:200px""alt=""img"">
                                </div>
                            </div>",137,,0,images/D11.png,,,
,,,,,html-slider-response,118,120778,0.0-114.0,o65qq3pmnp,NaN,"<div style=""width:500px;"">
                                <p style=""font-size:50px; font-weight:bold;""
                                ></p>
                                <div style=""width:240px; margin: auto;"">
                                    <img src=""images/D91.png"" style= ""width:200px""alt=""img"">
                                </div>
                            </div>",137,,0,images/D91.png,,,
,,,,,html-slider-response,119,121612,0.0-115.0,o65qq3pmnp,NaN,"<div style=""width:500px;"">
                                <p style=""font-size:50px; font-weight:bold;""
                                ></p>
                                <div style=""width:240px; margin: auto;"">
                                    <img src=""images/D21.png"" style= ""width:200px""alt=""img"">
                                </div>
                            </div>",137,,0,images/D21.png,,,
,,,,,html-slider-response,120,122499,0.0-116.0,o65qq3pmnp,NaN,"<div style=""width:500px;"">
                                <p style=""font-size:50px; font-weight:bold;""
                                ></p>
                                <div style=""width:240px; margin: auto;"">
                                    <img src=""images/D50.png"" style= ""width:200px""alt=""img"">
                                </div>
                            </div>",137,,0,images/D50.png,,,
,,,,,html-slider-response,121,123344,0.0-117.0,o65qq3pmnp,NaN,"<div style=""width:500px;"">
                                <p style=""font-size:50px; font-weight:bold;""
                                ></p>
                                <div style=""width:240px; margin: auto;"">
                                    <img src=""images/D76.png"" style= ""width:200px""alt=""img"">
                                </div>
                            </div>",137,,0,images/D76.png,,,
,,,,,html-slider-response,122,124254,0.0-118.0,o65qq3pmnp,NaN,"<div style=""width:500px;"">
                                <p style=""font-size:50px; font-weight:bold;""
                                ></p>
                                <div style=""width:240px; margin: auto;"">
                                    <img src=""images/D18.png"" style= ""width:200px""alt=""img"">
                                </div>
                            </div>",137,,0,images/D18.png,,,
,,,,,html-slider-response,123,125124,0.0-119.0,o65qq3pmnp,NaN,"<div style=""width:500px;"">
                                <p style=""font-size:50px; font-weight:bold;""
                                ></p>
                                <div style=""width:240px; margin: auto;"">
                                    <img src=""images/D90.png"" style= ""width:200px""alt=""img"">
                                </div>
                            </div>",137,,0,images/D90.png,,,
,,,,,html-slider-response,124,126007,0.0-120.0,o65qq3pmnp,NaN,"<div style=""width:500px;"">
                                <p style=""font-size:50px; font-weight:bold;""
                                ></p>
                                <div style=""width:240px; margin: auto;"">
                                    <img src=""images/D84.png"" style= ""width:200px""alt=""img"">
                                </div>
                            </div>",137,,0,images/D84.png,,,
,,,,,html-slider-response,125,126880,0.0-121.0,o65qq3pmnp,NaN,"<div style=""width:500px;"">
                                <p style=""font-size:50px; font-weight:bold;""
                                ></p>
                                <div style=""width:240px; margin: auto;"">
                                    <img src=""images/D98.png"" style= ""width:200px""alt=""img"">
                                </div>
                            </div>",137,,0,images/D98.png,,,
,,,,,html-slider-response,126,127824,0.0-122.0,o65qq3pmnp,NaN,"<div style=""width:500px;"">
                                <p style=""font-size:50px; font-weight:bold;""
                                ></p>
                                <div style=""width:240px; margin: auto;"">
                                    <img src=""images/D6.png"" style= ""width:200px""alt=""img"">
                                </div>
                            </div>",137,,0,images/D6.png,,,
,,,,,html-slider-response,127,128737,0.0-123.0,o65qq3pmnp,NaN,"<div style=""width:500px;"">
                                <p style=""font-size:50px; font-weight:bold;""
                                ></p>
                                <div style=""width:240px; margin: auto;"">
                                    <img src=""images/D34.png"" style= ""width:200px""alt=""img"">
                                </div>
                            </div>",137,,0,images/D34.png,,,
,,,,,html-slider-response,128,129644,0.0-124.0,o65qq3pmnp,NaN,"<div style=""width:500px;"">
                                <p style=""font-size:50px; font-weight:bold;""
                                ></p>
                                <div style=""width:240px; margin: auto;"">
                                    <img src=""images/D58.png"" style= ""width:200px""alt=""img"">
                                </div>
                            </div>",137,,0,images/D58.png,,,
,,,,,html-slider-response,129,130509,0.0-125.0,o65qq3pmnp,NaN,"<div style=""width:500px;"">
                                <p style=""font-size:50px; font-weight:bold;""
                                ></p>
                                <div style=""width:240px; margin: auto;"">
                                    <img src=""images/D105.png"" style= ""width:200px""alt=""img"">
                                </div>
                            </div>",137,,0,images/D105.png,,,
,,,,,html-slider-response,130,131504,0.0-126.0,o65qq3pmnp,NaN,"<div style=""width:500px;"">
                                <p style=""font-size:50px; font-weight:bold;""
                                ></p>
                                <div style=""width:240px; margin: auto;"">
                                    <img src=""images/D3.png"" style= ""width:200px""alt=""img"">
                                </div>
                            </div>",137,,0,images/D3.png,,,
,,,,,html-button-response,131,133407,0.0-127.0,o65qq3pmnp,1400,You have completed 50% of the trials. Please click 'Continue' when you are ready proceed.,0,,,,,,
,,,,,html-slider-response,132,135243,0.0-128.0,o65qq3pmnp,NaN,"<div style=""width:500px;"">
                                <p style=""font-size:50px; font-weight:bold;""
                                ></p>
                                <div style=""width:240px; margin: auto;"">
                                    <img src=""images/D19.png"" style= ""width:200px""alt=""img"">
                                </div>
                            </div>",-83,,0,images/D19.png,,,
,,,,,html-slider-response,133,136199,0.0-129.0,o65qq3pmnp,NaN,"<div style=""width:500px;"">
                                <p style=""font-size:50px; font-weight:bold;""
                                ></p>
                                <div style=""width:240px; margin: auto;"">
                                    <img src=""images/D70.png"" style= ""width:200px""alt=""img"">
                                </div>
                            </div>",31,,0,images/D70.png,,,
,,,,,html-slider-response,134,137100,0.0-130.0,o65qq3pmnp,NaN,"<div style=""width:500px;"">
                                <p style=""font-size:50px; font-weight:bold;""
                                ></p>
                                <div style=""width:240px; margin: auto;"">
                                    <img src=""images/D68.png"" style= ""width:200px""alt=""img"">
                                </div>
                            </div>",-9,,0,images/D68.png,,,
,,,,,html-slider-response,135,138001,0.0-131.0,o65qq3pmnp,NaN,"<div style=""width:500px;"">
                                <p style=""font-size:50px; font-weight:bold;""
                                ></p>
                                <div style=""width:240px; margin: auto;"">
                                    <img src=""images/D43.png"" style= ""width:200px""alt=""img"">
                                </div>
                            </div>",-11,,0,images/D43.png,,,
,,,,,html-slider-response,136,138974,0.0-132.0,o65qq3pmnp,NaN,"<div style=""width:500px;"">
                                <p style=""font-size:50px; font-weight:bold;""
                                ></p>
                                <div style=""width:240px; margin: auto;"">
                                    <img src=""images/D83.png"" style= ""width:200px""alt=""img"">
                                </div>
                            </div>",-11,,0,images/D83.png,,,
,,,,,html-slider-response,137,139881,0.0-133.0,o65qq3pmnp,NaN,"<div style=""width:500px;"">
                                <p style=""font-size:50px; font-weight:bold;""
                                ></p>
                                <div style=""width:240px; margin: auto;"">
                                    <img src=""images/D54.png"" style= ""width:200px""alt=""img"">
                                </div>
                            </div>",-11,,0,images/D54.png,,,
,,,,,html-slider-response,138,140774,0.0-134.0,o65qq3pmnp,NaN,"<div style=""width:500px;"">
                                <p style=""font-size:50px; font-weight:bold;""
                                ></p>
                                <div style=""width:240px; margin: auto;"">
                                    <img src=""images/D34.png"" style= ""width:200px""alt=""img"">
                                </div>
                            </div>",-11,,0,images/D34.png,,,
,,,,,html-slider-response,139,141785,0.0-135.0,o65qq3pmnp,NaN,"<div style=""width:500px;"">
                                <p style=""font-size:50px; font-weight:bold;""
                                ></p>
                                <div style=""width:240px; margin: auto;"">
                                    <img src=""images/D22.png"" style= ""width:200px""alt=""img"">
                                </div>
                            </div>",-11,,0,images/D22.png,,,
,,,,,html-slider-response,140,142697,0.0-136.0,o65qq3pmnp,NaN,"<div style=""width:500px;"">
                                <p style=""font-size:50px; font-weight:bold;""
                                ></p>
                                <div style=""width:240px; margin: auto;"">
                                    <img src=""images/D13.png"" style= ""width:200px""alt=""img"">
                                </div>
                            </div>",-11,,0,images/D13.png,,,
,,,,,html-slider-response,141,143692,0.0-137.0,o65qq3pmnp,NaN,"<div style=""width:500px;"">
                                <p style=""font-size:50px; font-weight:bold;""
                                ></p>
                                <div style=""width:240px; margin: auto;"">
                                    <img src=""images/D45.png"" style= ""width:200px""alt=""img"">
                                </div>
                            </div>",-11,,0,images/D45.png,,,
,,,,,html-slider-response,142,144697,0.0-138.0,o65qq3pmnp,NaN,"<div style=""width:500px;"">
                                <p style=""font-size:50px; font-weight:bold;""
                                ></p>
                                <div style=""width:240px; margin: auto;"">
                                    <img src=""images/D82.png"" style= ""width:200px""alt=""img"">
                                </div>
                            </div>",-11,,0,images/D82.png,,,
,,,,,html-slider-response,143,145597,0.0-139.0,o65qq3pmnp,NaN,"<div style=""width:500px;"">
                                <p style=""font-size:50px; font-weight:bold;""
                                ></p>
                                <div style=""width:240px; margin: auto;"">
                                    <img src=""images/D41.png"" style= ""width:200px""alt=""img"">
                                </div>
                            </div>",-11,,0,images/D41.png,,,
,,,,,html-slider-response,144,146482,0.0-140.0,o65qq3pmnp,NaN,"<div style=""width:500px;"">
                                <p style=""font-size:50px; font-weight:bold;""
                                ></p>
                                <div style=""width:240px; margin: auto;"">
                                    <img src=""images/D63.png"" style= ""width:200px""alt=""img"">
                                </div>
                            </div>",-11,,0,images/D63.png,,,
,,,,,html-slider-response,145,147428,0.0-141.0,o65qq3pmnp,NaN,"<div style=""width:500px;"">
                                <p style=""font-size:50px; font-weight:bold;""
                                ></p>
                                <div style=""width:240px; margin: auto;"">
                                    <img src=""images/D1.png"" style= ""width:200px""alt=""img"">
                                </div>
                            </div>",-11,,0,images/D1.png,,,
,,,,,html-slider-response,146,148394,0.0-142.0,o65qq3pmnp,NaN,"<div style=""width:500px;"">
                                <p style=""font-size:50px; font-weight:bold;""
                                ></p>
                                <div style=""width:240px; margin: auto;"">
                                    <img src=""images/D96.png"" style= ""width:200px""alt=""img"">
                                </div>
                            </div>",-11,,0,images/D96.png,,,
,,,,,html-slider-response,147,149308,0.0-143.0,o65qq3pmnp,NaN,"<div style=""width:500px;"">
                                <p style=""font-size:50px; font-weight:bold;""
                                ></p>
                                <div style=""width:240px; margin: auto;"">
                                    <img src=""images/D112.png"" style= ""width:200px""alt=""img"">
                                </div>
                            </div>",-11,,0,images/D112.png,,,
,,,,,html-slider-response,148,150107,0.0-144.0,o65qq3pmnp,NaN,"<div style=""width:500px;"">
                                <p style=""font-size:50px; font-weight:bold;""
                                ></p>
                                <div style=""width:240px; margin: auto;"">
                                    <img src=""images/D102.png"" style= ""width:200px""alt=""img"">
                                </div>
                            </div>",-11,,0,images/D102.png,,,
,,,,,html-slider-response,149,150960,0.0-145.0,o65qq3pmnp,NaN,"<div style=""width:500px;"">
                                <p style=""font-size:50px; font-weight:bold;""
                                ></p>
                                <div style=""width:240px; margin: auto;"">
                                    <img src=""images/D61.png"" style= ""width:200px""alt=""img"">
                                </div>
                            </div>",-11,,0,images/D61.png,,,
,,,,,html-slider-response,150,151797,0.0-146.0,o65qq3pmnp,NaN,"<div style=""width:500px;"">
                                <p style=""font-size:50px; font-weight:bold;""
                                ></p>
                                <div style=""width:240px; margin: auto;"">
                                    <img src=""images/D40.png"" style= ""width:200px""alt=""img"">
                                </div>
                            </div>",-11,,0,images/D40.png,,,
,,,,,html-slider-response,151,152655,0.0-147.0,o65qq3pmnp,NaN,"<div style=""width:500px;"">
                                <p style=""font-size:50px; font-weight:bold;""
                                ></p>
                                <div style=""width:240px; margin: auto;"">
                                    <img src=""images/D44.png"" style= ""width:200px""alt=""img"">
                                </div>
                            </div>",-11,,0,images/D44.png,,,
,,,,,html-slider-response,152,153518,0.0-148.0,o65qq3pmnp,NaN,"<div style=""width:500px;"">
                                <p style=""font-size:50px; font-weight:bold;""
                                ></p>
                                <div style=""width:240px; margin: auto;"">
                                    <img src=""images/D11.png"" style= ""width:200px""alt=""img"">
                                </div>
                            </div>",-11,,0,images/D11.png,,,
,,,,,html-slider-response,153,154388,0.0-149.0,o65qq3pmnp,NaN,"<div style=""width:500px;"">
                                <p style=""font-size:50px; font-weight:bold;""
                                ></p>
                                <div style=""width:240px; margin: auto;"">
                                    <img src=""images/D69.png"" style= ""width:200px""alt=""img"">
                                </div>
                            </div>",-11,,0,images/D69.png,,,
,,,,,html-slider-response,154,155229,0.0-150.0,o65qq3pmnp,NaN,"<div style=""width:500px;"">
                                <p style=""font-size:50px; font-weight:bold;""
                                ></p>
                                <div style=""width:240px; margin: auto;"">
                                    <img src=""images/D37.png"" style= ""width:200px""alt=""img"">
                                </div>
                            </div>",-11,,0,images/D37.png,,,
,,,,,html-slider-response,155,156038,0.0-151.0,o65qq3pmnp,NaN,"<div style=""width:500px;"">
                                <p style=""font-size:50px; font-weight:bold;""
                                ></p>
                                <div style=""width:240px; margin: auto;"">
                                    <img src=""images/D100.png"" style= ""width:200px""alt=""img"">
                                </div>
                            </div>",-11,,0,images/D100.png,,,
,,,,,html-slider-response,156,156802,0.0-152.0,o65qq3pmnp,NaN,"<div style=""width:500px;"">
                                <p style=""font-size:50px; font-weight:bold;""
                                ></p>
                                <div style=""width:240px; margin: auto;"">
                                    <img src=""images/D5.png"" style= ""width:200px""alt=""img"">
                                </div>
                            </div>",-11,,0,images/D5.png,,,
,,,,,html-slider-response,157,157565,0.0-153.0,o65qq3pmnp,NaN,"<div style=""width:500px;"">
                                <p style=""font-size:50px; font-weight:bold;""
                                ></p>
                                <div style=""width:240px; margin: auto;"">
                                    <img src=""images/D106.png"" style= ""width:200px""alt=""img"">
                                </div>
                            </div>",-11,,0,images/D106.png,,,
,,,,,html-slider-response,158,158405,0.0-154.0,o65qq3pmnp,NaN,"<div style=""width:500px;"">
                                <p style=""font-size:50px; font-weight:bold;""
                                ></p>
                                <div style=""width:240px; margin: auto;"">
                                    <img src=""images/D9.png"" style= ""width:200px""alt=""img"">
                                </div>
                            </div>",-11,,0,images/D9.png,,,
,,,,,html-slider-response,159,159262,0.0-155.0,o65qq3pmnp,NaN,"<div style=""width:500px;"">
                                <p style=""font-size:50px; font-weight:bold;""
                                ></p>
                                <div style=""width:240px; margin: auto;"">
                                    <img src=""images/D59.png"" style= ""width:200px""alt=""img"">
                                </div>
                            </div>",-11,,0,images/D59.png,,,
,,,,,html-slider-response,160,160140,0.0-156.0,o65qq3pmnp,NaN,"<div style=""width:500px;"">
                                <p style=""font-size:50px; font-weight:bold;""
                                ></p>
                                <div style=""width:240px; margin: auto;"">
                                    <img src=""images/D51.png"" style= ""width:200px""alt=""img"">
                                </div>
                            </div>",-11,,0,images/D51.png,,,
,,,,,html-slider-response,161,160939,0.0-157.0,o65qq3pmnp,NaN,"<div style=""width:500px;"">
                                <p style=""font-size:50px; font-weight:bold;""
                                ></p>
                                <div style=""width:240px; margin: auto;"">
                                    <img src=""images/D53.png"" style= ""width:200px""alt=""img"">
                                </div>
                            </div>",-11,,0,images/D53.png,,,
,,,,,html-slider-response,162,161780,0.0-158.0,o65qq3pmnp,NaN,"<div style=""width:500px;"">
                                <p style=""font-size:50px; font-weight:bold;""
                                ></p>
                                <div style=""width:240px; margin: auto;"">
                                    <img src=""images/D81.png"" style= ""width:200px""alt=""img"">
                                </div>
                            </div>",-11,,0,images/D81.png,,,
,,,,,html-slider-response,163,162661,0.0-159.0,o65qq3pmnp,NaN,"<div style=""width:500px;"">
                                <p style=""font-size:50px; font-weight:bold;""
                                ></p>
                                <div style=""width:240px; margin: auto;"">
                                    <img src=""images/D108.png"" style= ""width:200px""alt=""img"">
                                </div>
                            </div>",-11,,0,images/D108.png,,,
,,,,,html-slider-response,164,163508,0.0-160.0,o65qq3pmnp,NaN,"<div style=""width:500px;"">
                                <p style=""font-size:50px; font-weight:bold;""
                                ></p>
                                <div style=""width:240px; margin: auto;"">
                                    <img src=""images/D87.png"" style= ""width:200px""alt=""img"">
                                </div>
                            </div>",-11,,0,images/D87.png,,,
,,,,,html-slider-response,165,164355,0.0-161.0,o65qq3pmnp,NaN,"<div style=""width:500px;"">
                                <p style=""font-size:50px; font-weight:bold;""
                                ></p>
                                <div style=""width:240px; margin: auto;"">
                                    <img src=""images/D17.png"" style= ""width:200px""alt=""img"">
                                </div>
                            </div>",-11,,0,images/D17.png,,,
,,,,,html-slider-response,166,165291,0.0-162.0,o65qq3pmnp,NaN,"<div style=""width:500px;"">
                                <p style=""font-size:50px; font-weight:bold;""
                                ></p>
                                <div style=""width:240px; margin: auto;"">
                                    <img src=""images/D32.png"" style= ""width:200px""alt=""img"">
                                </div>
                            </div>",-11,,0,images/D32.png,,,
,,,,,html-slider-response,167,166140,0.0-163.0,o65qq3pmnp,NaN,"<div style=""width:500px;"">
                                <p style=""font-size:50px; font-weight:bold;""
                                ></p>
                                <div style=""width:240px; margin: auto;"">
                                    <img src=""images/D86.png"" style= ""width:200px""alt=""img"">
                                </div>
                            </div>",-11,,0,images/D86.png,,,
,,,,,html-slider-response,168,167048,0.0-164.0,o65qq3pmnp,NaN,"<div style=""width:500px;"">
                                <p style=""font-size:50px; font-weight:bold;""
                                ></p>
                                <div style=""width:240px; margin: auto;"">
                                    <img src=""images/D33.png"" style= ""width:200px""alt=""img"">
                                </div>
                            </div>",-11,,0,images/D33.png,,,
,,,,,html-slider-response,169,167909,0.0-165.0,o65qq3pmnp,NaN,"<div style=""width:500px;"">
                                <p style=""font-size:50px; font-weight:bold;""
                                ></p>
                                <div style=""width:240px; margin: auto;"">
                                    <img src=""images/D64.png"" style= ""width:200px""alt=""img"">
                                </div>
                            </div>",-11,,0,images/D64.png,,,
,,,,,html-slider-response,170,168764,0.0-166.0,o65qq3pmnp,NaN,"<div style=""width:500px;"">
                                <p style=""font-size:50px; font-weight:bold;""
                                ></p>
                                <div style=""width:240px; margin: auto;"">
                                    <img src=""images/D75.png"" style= ""width:200px""alt=""img"">
                                </div>
                            </div>",-11,,0,images/D75.png,,,
,,,,,html-slider-response,171,169640,0.0-167.0,o65qq3pmnp,NaN,"<div style=""width:500px;"">
                                <p style=""font-size:50px; font-weight:bold;""
                                ></p>
                                <div style=""width:240px; margin: auto;"">
                                    <img src=""images/D84.png"" style= ""width:200px""alt=""img"">
                                </div>
                            </div>",-11,,0,images/D84.png,,,
,,,,,html-slider-response,172,170505,0.0-168.0,o65qq3pmnp,NaN,"<div style=""width:500px;"">
                                <p style=""font-size:50px; font-weight:bold;""
                                ></p>
                                <div style=""width:240px; margin: auto;"">
                                    <img src=""images/D67.png"" style= ""width:200px""alt=""img"">
                                </div>
                            </div>",-11,,0,images/D67.png,,,
,,,,,html-slider-response,173,171403,0.0-169.0,o65qq3pmnp,NaN,"<div style=""width:500px;"">
                                <p style=""font-size:50px; font-weight:bold;""
                                ></p>
                                <div style=""width:240px; margin: auto;"">
                                    <img src=""images/D47.png"" style= ""width:200px""alt=""img"">
                                </div>
                            </div>",-11,,0,images/D47.png,,,
,,,,,html-slider-response,174,172198,0.0-170.0,o65qq3pmnp,NaN,"<div style=""width:500px;"">
                                <p style=""font-size:50px; font-weight:bold;""
                                ></p>
                                <div style=""width:240px; margin: auto;"">
                                    <img src=""images/D76.png"" style= ""width:200px""alt=""img"">
                                </div>
                            </div>",-11,,0,images/D76.png,,,
,,,,,html-slider-response,175,173009,0.0-171.0,o65qq3pmnp,NaN,"<div style=""width:500px;"">
                                <p style=""font-size:50px; font-weight:bold;""
                                ></p>
                                <div style=""width:240px; margin: auto;"">
                                    <img src=""images/D6.png"" style= ""width:200px""alt=""img"">
                                </div>
                            </div>",-11,,0,images/D6.png,,,
,,,,,html-slider-response,176,173829,0.0-172.0,o65qq3pmnp,NaN,"<div style=""width:500px;"">
                                <p style=""font-size:50px; font-weight:bold;""
                                ></p>
                                <div style=""width:240px; margin: auto;"">
                                    <img src=""images/D94.png"" style= ""width:200px""alt=""img"">
                                </div>
                            </div>",-11,,0,images/D94.png,,,
,,,,,html-slider-response,177,174756,0.0-173.0,o65qq3pmnp,NaN,"<div style=""width:500px;"">
                                <p style=""font-size:50px; font-weight:bold;""
                                ></p>
                                <div style=""width:240px; margin: auto;"">
                                    <img src=""images/D109.png"" style= ""width:200px""alt=""img"">
                                </div>
                            </div>",-11,,0,images/D109.png,,,
,,,,,html-slider-response,178,175641,0.0-174.0,o65qq3pmnp,NaN,"<div style=""width:500px;"">
                                <p style=""font-size:50px; font-weight:bold;""
                                ></p>
                                <div style=""width:240px; margin: auto;"">
                                    <img src=""images/D35.png"" style= ""width:200px""alt=""img"">
                                </div>
                            </div>",-11,,0,images/D35.png,,,
,,,,,html-slider-response,179,176497,0.0-175.0,o65qq3pmnp,NaN,"<div style=""width:500px;"">
                                <p style=""font-size:50px; font-weight:bold;""
                                ></p>
                                <div style=""width:240px; margin: auto;"">
                                    <img src=""images/D24.png"" style= ""width:200px""alt=""img"">
                                </div>
                            </div>",-11,,0,images/D24.png,,,
,,,,,html-slider-response,180,177352,0.0-176.0,o65qq3pmnp,NaN,"<div style=""width:500px;"">
                                <p style=""font-size:50px; font-weight:bold;""
                                ></p>
                                <div style=""width:240px; margin: auto;"">
                                    <img src=""images/D4.png"" style= ""width:200px""alt=""img"">
                                </div>
                            </div>",-11,,0,images/D4.png,,,
,,,,,html-slider-response,181,178199,0.0-177.0,o65qq3pmnp,NaN,"<div style=""width:500px;"">
                                <p style=""font-size:50px; font-weight:bold;""
                                ></p>
                                <div style=""width:240px; margin: auto;"">
                                    <img src=""images/D15.png"" style= ""width:200px""alt=""img"">
                                </div>
                            </div>",-11,,0,images/D15.png,,,
,,,,,html-slider-response,182,179039,0.0-178.0,o65qq3pmnp,NaN,"<div style=""width:500px;"">
                                <p style=""font-size:50px; font-weight:bold;""
                                ></p>
                                <div style=""width:240px; margin: auto;"">
                                    <img src=""images/D29.png"" style= ""width:200px""alt=""img"">
                                </div>
                            </div>",-11,,0,images/D29.png,,,
,,,,,html-slider-response,183,179936,0.0-179.0,o65qq3pmnp,NaN,"<div style=""width:500px;"">
                                <p style=""font-size:50px; font-weight:bold;""
                                ></p>
                                <div style=""width:240px; margin: auto;"">
                                    <img src=""images/D21.png"" style= ""width:200px""alt=""img"">
                                </div>
                            </div>",-11,,0,images/D21.png,,,
,,,,,html-slider-response,184,180823,0.0-180.0,o65qq3pmnp,NaN,"<div style=""width:500px;"">
                                <p style=""font-size:50px; font-weight:bold;""
                                ></p>
                                <div style=""width:240px; margin: auto;"">
                                    <img src=""images/D90.png"" style= ""width:200px""alt=""img"">
                                </div>
                            </div>",-11,,0,images/D90.png,,,
,,,,,html-slider-response,185,181806,0.0-181.0,o65qq3pmnp,NaN,"<div style=""width:500px;"">
                                <p style=""font-size:50px; font-weight:bold;""
                                ></p>
                                <div style=""width:240px; margin: auto;"">
                                    <img src=""images/D91.png"" style= ""width:200px""alt=""img"">
                                </div>
                            </div>",-11,,0,images/D91.png,,,
,,,,,html-slider-response,186,182512,0.0-182.0,o65qq3pmnp,NaN,"<div style=""width:500px;"">
                                <p style=""font-size:50px; font-weight:bold;""
                                ></p>
                                <div style=""width:240px; margin: auto;"">
                                    <img src=""images/D99.png"" style= ""width:200px""alt=""img"">
                                </div>
                            </div>",-11,,0,images/D99.png,,,
,,,,,html-slider-response,187,183188,0.0-183.0,o65qq3pmnp,NaN,"<div style=""width:500px;"">
                                <p style=""font-size:50px; font-weight:bold;""
                                ></p>
                                <div style=""width:240px; margin: auto;"">
                                    <img src=""images/D3.png"" style= ""width:200px""alt=""img"">
                                </div>
                            </div>",-11,,0,images/D3.png,,,
,,,,,html-button-response,188,185156,0.0-184.0,o65qq3pmnp,1464,You have completed 75% of the trials. Please click 'Continue' when you are ready proceed.,0,,,,,,
,,,,,html-slider-response,189,186341,0.0-185.0,o65qq3pmnp,NaN,"<div style=""width:500px;"">
                                <p style=""font-size:50px; font-weight:bold;""
                                ></p>
                                <div style=""width:240px; margin: auto;"">
                                    <img src=""images/D89.png"" style= ""width:200px""alt=""img"">
                                </div>
                            </div>",38,,0,images/D89.png,,,
,,,,,html-slider-response,190,187162,0.0-186.0,o65qq3pmnp,NaN,"<div style=""width:500px;"">
                                <p style=""font-size:50px; font-weight:bold;""
                                ></p>
                                <div style=""width:240px; margin: auto;"">
                                    <img src=""images/D50.png"" style= ""width:200px""alt=""img"">
                                </div>
                            </div>",40,,0,images/D50.png,,,
,,,,,html-slider-response,191,187993,0.0-187.0,o65qq3pmnp,NaN,"<div style=""width:500px;"">
                                <p style=""font-size:50px; font-weight:bold;""
                                ></p>
                                <div style=""width:240px; margin: auto;"">
                                    <img src=""images/D38.png"" style= ""width:200px""alt=""img"">
                                </div>
                            </div>",40,,0,images/D38.png,,,
,,,,,html-slider-response,192,188789,0.0-188.0,o65qq3pmnp,NaN,"<div style=""width:500px;"">
                                <p style=""font-size:50px; font-weight:bold;""
                                ></p>
                                <div style=""width:240px; margin: auto;"">
                                    <img src=""images/D77.png"" style= ""width:200px""alt=""img"">
                                </div>
                            </div>",40,,0,images/D77.png,,,
,,,,,html-slider-response,193,189586,0.0-189.0,o65qq3pmnp,NaN,"<div style=""width:500px;"">
                                <p style=""font-size:50px; font-weight:bold;""
                                ></p>
                                <div style=""width:240px; margin: auto;"">
                                    <img src=""images/D74.png"" style= ""width:200px""alt=""img"">
                                </div>
                            </div>",40,,0,images/D74.png,,,
,,,,,html-slider-response,194,190529,0.0-190.0,o65qq3pmnp,NaN,"<div style=""width:500px;"">
                                <p style=""font-size:50px; font-weight:bold;""
                                ></p>
                                <div style=""width:240px; margin: auto;"">
                                    <img src=""images/D58.png"" style= ""width:200px""alt=""img"">
                                </div>
                            </div>",40,,0,images/D58.png,,,
,,,,,html-slider-response,195,191391,0.0-191.0,o65qq3pmnp,NaN,"<div style=""width:500px;"">
                                <p style=""font-size:50px; font-weight:bold;""
                                ></p>
                                <div style=""width:240px; margin: auto;"">
                                    <img src=""images/D14.png"" style= ""width:200px""alt=""img"">
                                </div>
                            </div>",40,,0,images/D14.png,,,
,,,,,html-slider-response,196,192255,0.0-192.0,o65qq3pmnp,NaN,"<div style=""width:500px;"">
                                <p style=""font-size:50px; font-weight:bold;""
                                ></p>
                                <div style=""width:240px; margin: auto;"">
                                    <img src=""images/D104.png"" style= ""width:200px""alt=""img"">
                                </div>
                            </div>",40,,0,images/D104.png,,,
,,,,,html-slider-response,197,193146,0.0-193.0,o65qq3pmnp,NaN,"<div style=""width:500px;"">
                                <p style=""font-size:50px; font-weight:bold;""
                                ></p>
                                <div style=""width:240px; margin: auto;"">
                                    <img src=""images/D30.png"" style= ""width:200px""alt=""img"">
                                </div>
                            </div>",40,,0,images/D30.png,,,
,,,,,html-slider-response,198,194008,0.0-194.0,o65qq3pmnp,NaN,"<div style=""width:500px;"">
                                <p style=""font-size:50px; font-weight:bold;""
                                ></p>
                                <div style=""width:240px; margin: auto;"">
                                    <img src=""images/D97.png"" style= ""width:200px""alt=""img"">
                                </div>
                            </div>",40,,0,images/D97.png,,,
,,,,,html-slider-response,199,195013,0.0-195.0,o65qq3pmnp,NaN,"<div style=""width:500px;"">
                                <p style=""font-size:50px; font-weight:bold;""
                                ></p>
                                <div style=""width:240px; margin: auto;"">
                                    <img src=""images/D7.png"" style= ""width:200px""alt=""img"">
                                </div>
                            </div>",40,,0,images/D7.png,,,
,,,,,html-slider-response,200,195922,0.0-196.0,o65qq3pmnp,NaN,"<div style=""width:500px;"">
                                <p style=""font-size:50px; font-weight:bold;""
                                ></p>
                                <div style=""width:240px; margin: auto;"">
                                    <img src=""images/D16.png"" style= ""width:200px""alt=""img"">
                                </div>
                            </div>",40,,0,images/D16.png,,,
,,,,,html-slider-response,201,196782,0.0-197.0,o65qq3pmnp,NaN,"<div style=""width:500px;"">
                                <p style=""font-size:50px; font-weight:bold;""
                                ></p>
                                <div style=""width:240px; margin: auto;"">
                                    <img src=""images/D42.png"" style= ""width:200px""alt=""img"">
                                </div>
                            </div>",40,,0,images/D42.png,,,
,,,,,html-slider-response,202,197638,0.0-198.0,o65qq3pmnp,NaN,"<div style=""width:500px;"">
                                <p style=""font-size:50px; font-weight:bold;""
                                ></p>
                                <div style=""width:240px; margin: auto;"">
                                    <img src=""images/D95.png"" style= ""width:200px""alt=""img"">
                                </div>
                            </div>",40,,0,images/D95.png,,,
,,,,,html-slider-response,203,198471,0.0-199.0,o65qq3pmnp,NaN,"<div style=""width:500px;"">
                                <p style=""font-size:50px; font-weight:bold;""
                                ></p>
                                <div style=""width:240px; margin: auto;"">
                                    <img src=""images/D107.png"" style= ""width:200px""alt=""img"">
                                </div>
                            </div>",40,,0,images/D107.png,,,
,,,,,html-slider-response,204,199333,0.0-200.0,o65qq3pmnp,NaN,"<div style=""width:500px;"">
                                <p style=""font-size:50px; font-weight:bold;""
                                ></p>
                                <div style=""width:240px; margin: auto;"">
                                    <img src=""images/D92.png"" style= ""width:200px""alt=""img"">
                                </div>
                            </div>",40,,0,images/D92.png,,,
,,,,,html-slider-response,205,200390,0.0-201.0,o65qq3pmnp,NaN,"<div style=""width:500px;"">
                                <p style=""font-size:50px; font-weight:bold;""
                                ></p>
                                <div style=""width:240px; margin: auto;"">
                                    <img src=""images/D105.png"" style= ""width:200px""alt=""img"">
                                </div>
                            </div>",47,,0,images/D105.png,,,
,,,,,html-slider-response,206,201170,0.0-202.0,o65qq3pmnp,NaN,"<div style=""width:500px;"">
                                <p style=""font-size:50px; font-weight:bold;""
                                ></p>
                                <div style=""width:240px; margin: auto;"">
                                    <img src=""images/D85.png"" style= ""width:200px""alt=""img"">
                                </div>
                            </div>",56,,0,images/D85.png,,,
,,,,,html-slider-response,207,202048,0.0-203.0,o65qq3pmnp,NaN,"<div style=""width:500px;"">
                                <p style=""font-size:50px; font-weight:bold;""
                                ></p>
                                <div style=""width:240px; margin: auto;"">
                                    <img src=""images/D98.png"" style= ""width:200px""alt=""img"">
                                </div>
                            </div>",56,,0,images/D98.png,,,
,,,,,html-slider-response,208,202858,0.0-204.0,o65qq3pmnp,NaN,"<div style=""width:500px;"">
                                <p style=""font-size:50px; font-weight:bold;""
